File: data/1105/SiNx_2-Theta_Omega.asc
*TYPE		=  Raw
*CLASS		=  ASCII CLASS
*SAMPLE		=
*COMMENT	=
*FNAME		=  SiNx_2-Theta_Omega.asc
*DATE		=  05-Nov-25 16:28

*GROUP_COUNT	=  1
*GONIO		=  SmartLab(In-plane), 0.000000
*ATTACHMENT	=  Z-Phi Stage
*ASC		=  0, 0, 0.000000, 0.000000
*I_MONOCHRO	=  Soller_slit_5.0deg, 0.000000
*FILTER		=  None
*C_MONOCHRO	=  None, 0.000000
*SLIT_NAME	=  0, Incident slit
*SLIT_NAME	=  1, Receiving slit # 1
*SLIT_NAME	=  2, Receiving slit # 2
*COUNTER	=  SC-70, 0
*POS_FORMAT	=  0
*SCAN_AXIS	=  2Theta/Omega
*MEAS_MODE	=  Continuous Scanning
*TARGET		=  29
*XRAY_CHAR	=  K-ALPHA
*WAVE_LENGTH1	=  1.54059
*WAVE_LENGTH2	=  1.54441
*THICKNESS	=  0, 0.000000
*MU		=  0, 0.000000
*SCAN_MODE	=  2Theta/Omega
*SPEED_DIM	=  sec./step
*XUNIT		=  deg.
*YUNIT		=  counts
*SCALE_MODE	=  1
*REP_COUNT	=  0
*SE_COUNT	=  0
*STD_MATERIAL	=  Unknown, Unknown, 0.000000, 0.000000, 0.000000, 0.000000, 0.000000, 0.000000
*LATT_CONS	=  0, Unknown, Unknown, 0.000000, 0.000000, 0.000000, 0.000000, 0.000000, 0.000000
*SEC_COUNT	=  1
*TSPEC_SIZE	=  0
*EXTRA_SIZE	=  0
*MEMO		=

*BEGIN
*GROUP		=  0
*START		=  10
*STOP		=  80
*STEP		=  0.01
*OFFSET		=  0.000000
*SPEED		=  0.12
*SLIT_SPEC	=  0, 1.000mm, 1, 0.000000
*SLIT_SPEC	=  1, 1.000mm, 1, 0.000000
*SLIT_SPEC	=  2, 1.000mm, 1, 0.000000
*KV		=  40
*MA		=  100
*LOW		=  0.000000
*HIGH		=  0.000000
*CTEMPER	=  0, 0.000000
*CTEMPER	=  1, 0.000000
*CTEMPER	=  2, 0.000000
*PAREX		=  0, 0.000000
*PAREX		=  1, 0.000000
*PAREX		=  2, 0.000000
*PAREX		=  3, 0.000000
*PAREX		=  4, 0.000000
*PAREX		=  5, 0.000000
*PAREX		=  6, 0.000000
*PAREX		=  7, 0.000000
*PAREX		=  8, 0.000000
*PAREX		=  9, 0.000000
*PAREX		=  10, 0.000000
*PAREX		=  11, 0.000000
*PAREX		=  12, 0.000000
*PAREX		=  13, 0.000000
*PAREX		=  14, 0.000000
*PAREX		=  15, 0.000000
*FULL_SCALE	=  34120
*INDEX		=  0, 0, 0
*COUNT		=  7001
40, 33, 35, 39
46, 46, 44, 33
29, 39, 32, 38
48, 36, 34, 37
40, 24, 37, 42
35, 38, 51, 40
44, 38, 34, 36
40, 50, 36, 44
37, 35, 47, 43
45, 35, 39, 45
51, 37, 41, 31
35, 45, 35, 31
48, 28, 35, 42
36, 26, 40, 30
34, 31, 42, 30
33, 26, 42, 43
41, 33, 38, 43
38, 32, 45, 27
35, 38, 25, 36
17, 35, 34, 43
35, 29, 33, 35
22, 38, 43, 33
30, 25, 32, 27
33, 38, 33, 29
35, 39, 28, 25
29, 32, 27, 38
27, 34, 24, 22
27, 31, 24, 33
33, 33, 39, 32
41, 32, 38, 34
23, 31, 44, 23
37, 29, 37, 29
40, 27, 34, 39
34, 20, 31, 25
23, 22, 22, 29
19, 29, 28, 35
37, 35, 21, 31
26, 21, 18, 39
30, 30, 29, 24
24, 31, 34, 22
26, 27, 18, 24
36, 27, 34, 33
29, 25, 29, 29
26, 32, 27, 25
30, 28, 24, 39
27, 22, 22, 28
19, 29, 27, 31
38, 29, 16, 28
26, 38, 32, 32
25, 25, 25, 30
32, 32, 30, 26
38, 21, 32, 19
26, 29, 31, 24
20, 23, 32, 34
31, 28, 20, 24
30, 29, 24, 29
24, 18, 20, 17
19, 25, 29, 19
27, 28, 27, 31
27, 24, 27, 33
18, 22, 18, 25
32, 21, 24, 16
26, 21, 20, 19
29, 38, 22, 26
22, 21, 30, 24
29, 21, 17, 27
25, 24, 20, 32
22, 19, 30, 20
19, 30, 27, 25
22, 32, 24, 22
14, 26, 29, 23
23, 14, 26, 22
28, 31, 24, 28
22, 18, 25, 23
20, 19, 22, 23
22, 11, 31, 21
25, 24, 26, 16
20, 24, 24, 19
18, 16, 23, 17
12, 27, 24, 22
20, 11, 19, 23
21, 21, 18, 28
14, 20, 26, 19
26, 26, 18, 24
17, 22, 23, 18
18, 14, 23, 17
16, 24, 20, 21
20, 24, 21, 22
16, 20, 21, 19
14, 27, 23, 20
10, 18, 19, 28
22, 20, 23, 16
24, 20, 26, 23
12, 15, 28, 14
24, 21, 26, 24
20, 20, 20, 28
24, 16, 17, 25
18, 11, 24, 21
17, 6, 10, 24
20, 15, 20, 21
21, 20, 17, 28
22, 20, 21, 24
16, 22, 25, 21
17, 22, 22, 31
26, 19, 23, 12
25, 19, 18, 24
20, 11, 23, 14
14, 27, 13, 18
17, 21, 11, 21
16, 16, 25, 22
17, 19, 23, 14
18, 20, 25, 17
20, 20, 15, 21
19, 17, 21, 18
17, 22, 24, 15
11, 17, 14, 24
18, 11, 13, 15
17, 15, 24, 16
14, 21, 15, 12
22, 20, 16, 15
13, 17, 22, 13
16, 24, 24, 16
19, 11, 25, 19
29, 15, 22, 17
18, 13, 16, 15
15, 20, 18, 19
16, 15, 18, 20
14, 24, 16, 18
12, 20, 27, 10
18, 15, 20, 24
14, 12, 19, 21
13, 23, 15, 13
16, 14, 16, 25
13, 16, 24, 17
15, 19, 12, 14
22, 14, 22, 25
13, 18, 15, 13
15, 14, 17, 13
22, 17, 20, 18
15, 19, 15, 21
12, 15, 16, 15
16, 14, 17, 26
21, 16, 10, 13
6, 16, 18, 18
12, 18, 13, 26
20, 21, 14, 20
13, 14, 17, 17
17, 20, 15, 13
16, 19, 16, 15
15, 9, 16, 14
14, 15, 20, 13
12, 20, 21, 16
12, 14, 12, 14
20, 17, 12, 11
18, 15, 11, 13
15, 20, 24, 17
11, 21, 17, 13
14, 11, 16, 22
10, 20, 10, 18
20, 15, 16, 13
13, 6, 16, 6
13, 14, 16, 17
19, 22, 13, 14
21, 21, 9, 16
18, 12, 17, 12
19, 21, 17, 19
15, 14, 22, 17
14, 12, 18, 15
25, 19, 11, 9
25, 19, 9, 13
23, 15, 12, 8
6, 8, 12, 10
12, 15, 15, 18
17, 19, 15, 10
15, 17, 9, 7
11, 15, 12, 13
16, 18, 8, 23
15, 12, 17, 8
15, 9, 14, 12
20, 19, 15, 11
21, 8, 14, 15
12, 16, 16, 12
13, 17, 16, 15
14, 6, 12, 12
12, 17, 12, 7
8, 11, 16, 13
17, 19, 11, 22
11, 12, 12, 12
21, 18, 15, 14
12, 11, 17, 9
10, 12, 18, 11
16, 20, 21, 13
11, 8, 5, 15
13, 12, 7, 11
12, 17, 10, 12
13, 20, 6, 10
16, 8, 14, 15
11, 11, 16, 15
13, 23, 17, 12
11, 10, 10, 17
7, 11, 17, 17
15, 15, 14, 15
18, 12, 10, 18
17, 18, 11, 10
14, 13, 20, 15
13, 11, 15, 20
14, 14, 12, 7
19, 14, 15, 12
9, 7, 11, 12
22, 12, 15, 7
14, 13, 19, 19
12, 14, 10, 16
9, 7, 8, 13
8, 13, 12, 11
11, 11, 21, 18
12, 8, 13, 9
16, 14, 14, 11
9, 11, 12, 7
9, 20, 13, 13
17, 13, 14, 15
19, 17, 12, 14
15, 10, 6, 10
6, 16, 14, 16
15, 11, 18, 12
18, 7, 9, 10
11, 19, 9, 15
14, 11, 14, 17
16, 18, 7, 13
13, 10, 11, 13
13, 13, 12, 10
16, 14, 14, 18
7, 6, 7, 13
8, 11, 9, 9
11, 13, 15, 13
7, 8, 11, 9
13, 9, 20, 14
13, 24, 13, 12
11, 17, 12, 14
12, 15, 15, 14
12, 11, 13, 16
15, 9, 11, 14
15, 14, 13, 20
12, 21, 9, 12
23, 14, 13, 12
15, 15, 13, 15
10, 7, 9, 13
17, 7, 12, 8
6, 18, 6, 14
12, 10, 5, 12
22, 15, 13, 15
16, 12, 14, 6
16, 17, 7, 14
10, 12, 15, 9
11, 11, 11, 17
15, 8, 11, 6
16, 12, 14, 11
12, 18, 13, 14
14, 7, 13, 18
8, 12, 8, 8
11, 10, 12, 16
8, 13, 11, 15
14, 7, 11, 10
12, 16, 13, 9
16, 12, 9, 11
14, 14, 9, 10
4, 16, 9, 14
25, 17, 9, 13
13, 12, 10, 8
12, 10, 14, 12
7, 11, 20, 8
17, 10, 10, 11
13, 11, 9, 15
10, 11, 13, 16
10, 11, 13, 16
15, 11, 13, 10
17, 14, 9, 8
16, 14, 8, 16
12, 17, 13, 13
17, 11, 11, 12
14, 15, 6, 24
7, 21, 10, 10
11, 15, 15, 15
9, 10, 11, 10
16, 10, 10, 14
8, 11, 23, 18
10, 5, 14, 16
10, 10, 8, 15
13, 16, 14, 16
16, 14, 12, 18
12, 15, 17, 11
12, 14, 11, 11
5, 14, 15, 19
6, 6, 6, 10
11, 7, 13, 6
12, 15, 16, 10
10, 10, 14, 16
7, 6, 9, 15
14, 6, 9, 14
10, 11, 13, 12
19, 14, 11, 11
15, 14, 4, 12
14, 19, 11, 8
7, 10, 15, 17
14, 7, 13, 11
8, 11, 18, 14
11, 12, 18, 11
12, 14, 12, 11
11, 16, 9, 12
7, 8, 7, 16
13, 5, 15, 9
18, 11, 11, 13
10, 6, 14, 10
9, 15, 16, 17
10, 8, 11, 13
15, 9, 10, 14
10, 11, 10, 12
14, 16, 15, 11
18, 6, 8, 13
11, 12, 9, 15
17, 14, 12, 21
8, 16, 14, 13
15, 20, 11, 11
12, 14, 14, 11
18, 12, 21, 16
15, 14, 13, 7
8, 19, 9, 10
9, 18, 6, 8
12, 19, 7, 10
15, 9, 9, 14
19, 9, 9, 12
6, 11, 15, 15
13, 10, 12, 6
6, 11, 6, 9
14, 15, 16, 8
9, 14, 7, 18
5, 12, 15, 9
13, 21, 12, 16
11, 16, 19, 13
15, 18, 9, 15
14, 17, 21, 13
16, 8, 10, 18
12, 9, 14, 19
13, 15, 9, 13
13, 6, 15, 13
12, 12, 11, 11
19, 10, 13, 10
19, 17, 11, 19
7, 18, 8, 12
15, 14, 16, 11
16, 8, 11, 12
14, 15, 12, 17
13, 16, 18, 11
21, 7, 8, 18
13, 14, 14, 17
9, 18, 16, 10
15, 11, 11, 9
9, 9, 15, 17
23, 17, 14, 12
14, 6, 22, 15
14, 15, 14, 10
14, 16, 14, 16
12, 16, 17, 13
16, 16, 12, 15
15, 15, 15, 16
26, 14, 15, 15
8, 16, 16, 24
12, 13, 19, 12
18, 15, 9, 16
11, 19, 13, 12
13, 16, 19, 15
7, 17, 22, 21
17, 10, 17, 16
15, 15, 16, 13
19, 11, 22, 15
22, 12, 9, 13
16, 13, 13, 21
15, 19, 29, 15
16, 17, 23, 17
23, 16, 19, 16
19, 20, 31, 16
14, 20, 14, 13
17, 15, 31, 19
13, 13, 17, 22
20, 15, 9, 18
19, 19, 24, 17
10, 15, 16, 20
26, 20, 25, 16
17, 23, 14, 17
14, 28, 17, 19
20, 22, 20, 14
18, 12, 18, 24
19, 17, 21, 21
23, 16, 28, 17
14, 14, 29, 33
19, 21, 14, 20
30, 14, 16, 19
24, 13, 24, 26
24, 25, 12, 21
17, 25, 23, 17
21, 27, 18, 28
21, 22, 23, 21
25, 23, 26, 21
29, 18, 29, 28
25, 30, 31, 40
33, 19, 31, 40
34, 37, 35, 29
49, 33, 36, 38
44, 47, 40, 63
59, 38, 31, 32
37, 37, 24, 48
38, 25, 30, 30
28, 31, 29, 28
36, 30, 22, 42
30, 45, 27, 34
29, 33, 34, 30
45, 33, 35, 34
34, 30, 32, 43
44, 27, 20, 31
43, 34, 32, 36
31, 42, 30, 23
29, 35, 33, 38
32, 38, 31, 38
37, 50, 45, 39
40, 39, 35, 32
40, 41, 38, 44
39, 50, 49, 46
41, 41, 44, 46
43, 61, 53, 58
43, 46, 47, 38
48, 56, 56, 58
42, 55, 52, 58
54, 45, 58, 56
59, 61, 56, 53
44, 57, 47, 61
65, 75, 58, 49
68, 62, 70, 60
57, 77, 92, 86
79, 79, 77, 87
87, 71, 100, 108
105, 84, 88, 101
96, 106, 111, 116
128, 109, 107, 125
105, 109, 129, 105
103, 115, 109, 120
127, 109, 104, 110
125, 128, 115, 132
126, 118, 118, 131
123, 131, 163, 163
161, 151, 137, 143
147, 158, 158, 178
153, 159, 165, 172
184, 201, 199, 200
214, 199, 205, 204
247, 243, 246, 230
251, 240, 248, 280
270, 280, 270, 309
309, 304, 308, 333
381, 387, 358, 370
367, 396, 432, 445
503, 523, 536, 480
579, 562, 620, 624
760, 782, 825, 865
953, 982, 1058, 1050
1291, 1388, 1350, 1424
1859, 1966, 2024, 2118
2511, 2591, 2748, 2781
3271, 3279, 3285, 3359
3412, 3308, 3317, 3223
2858, 2743, 2696, 2663
2161, 2077, 2055, 1976
1561, 1512, 1471, 1391
1151, 1137, 1032, 960
859, 860, 797, 770
675, 664, 669, 610
543, 563, 559, 498
496, 456, 445, 425
379, 405, 386, 347
320, 326, 301, 348
301, 323, 287, 291
268, 249, 243, 244
208, 246, 227, 227
212, 240, 184, 224
213, 183, 184, 188
148, 149, 167, 176
175, 160, 141, 142
158, 163, 154, 128
133, 147, 133, 126
121, 101, 107, 112
126, 113, 102, 130
90, 102, 107, 93
109, 101, 104, 113
113, 77, 89, 82
100, 94, 93, 89
83, 97, 85, 98
75, 84, 75, 79
70, 83, 79, 79
73, 69, 67, 71
58, 72, 80, 78
64, 71, 72, 53
64, 75, 75, 64
62, 59, 78, 68
68, 59, 70, 72
66, 73, 56, 61
64, 82, 69, 64
62, 62, 65, 62
55, 60, 75, 58
66, 48, 53, 65
54, 45, 53, 60
60, 54, 76, 48
55, 45, 60, 47
62, 54, 59, 55
57, 59, 62, 56
54, 48, 64, 50
53, 53, 58, 59
65, 66, 56, 69
70, 60, 74, 75
64, 64, 54, 62
61, 65, 44, 49
57, 55, 52, 45
44, 51, 54, 48
45, 45, 60, 56
44, 50, 40, 46
53, 61, 51, 45
68, 58, 66, 46
53, 50, 62, 49
47, 51, 55, 38
50, 41, 34, 44
48, 46, 44, 47
42, 46, 39, 40
41, 30, 28, 39
36, 38, 31, 48
34, 39, 40, 36
34, 45, 30, 32
38, 32, 32, 37
34, 37, 32, 25
40, 42, 25, 37
29, 36, 23, 30
27, 26, 25, 32
25, 25, 27, 37
26, 32, 26, 26
35, 30, 26, 24
25, 34, 29, 29
36, 29, 27, 30
25, 26, 28, 31
22, 23, 27, 24
31, 26, 30, 28
15, 24, 27, 22
26, 21, 21, 20
31, 25, 18, 18
22, 22, 23, 30
22, 26, 27, 25
21, 23, 19, 28
16, 29, 21, 19
23, 18, 21, 24
23, 11, 14, 17
20, 19, 20, 27
22, 19, 28, 16
10, 23, 26, 29
22, 25, 14, 12
20, 20, 18, 18
15, 18, 21, 21
20, 16, 22, 26
13, 18, 18, 21
16, 18, 15, 14
19, 14, 23, 19
12, 19, 14, 18
15, 20, 20, 16
15, 15, 19, 21
17, 20, 23, 24
15, 16, 11, 17
18, 10, 18, 10
13, 21, 16, 9
19, 15, 14, 26
13, 21, 14, 19
15, 10, 22, 23
15, 16, 19, 9
15, 15, 16, 13
15, 21, 12, 19
13, 8, 8, 10
18, 14, 18, 12
20, 11, 16, 21
18, 12, 14, 19
17, 15, 17, 14
16, 17, 18, 13
14, 13, 10, 11
8, 16, 13, 17
9, 13, 12, 14
13, 15, 14, 14
8, 18, 12, 10
23, 9, 15, 15
15, 9, 8, 11
22, 19, 12, 10
10, 10, 22, 12
14, 17, 16, 15
14, 12, 12, 21
8, 15, 13, 16
15, 16, 20, 10
15, 19, 11, 12
14, 14, 18, 14
16, 13, 16, 15
14, 17, 20, 12
19, 10, 13, 14
15, 9, 16, 9
15, 14, 19, 11
13, 9, 9, 8
22, 10, 5, 8
14, 10, 7, 11
12, 15, 13, 8
12, 10, 8, 11
14, 13, 15, 9
15, 12, 7, 10
14, 13, 19, 15
12, 17, 12, 9
16, 11, 10, 15
14, 8, 9, 18
13, 8, 15, 14
7, 9, 13, 15
17, 15, 11, 11
6, 13, 15, 16
11, 16, 10, 9
10, 15, 10, 13
12, 15, 15, 6
15, 16, 14, 12
11, 12, 13, 14
13, 6, 10, 9
10, 12, 12, 12
16, 11, 14, 10
11, 11, 19, 4
16, 12, 13, 11
9, 14, 12, 15
9, 13, 13, 10
12, 9, 10, 6
12, 13, 11, 6
16, 22, 16, 7
21, 6, 13, 11
7, 5, 6, 11
11, 11, 14, 20
13, 12, 11, 9
14, 14, 16, 14
15, 12, 9, 11
5, 10, 9, 12
4, 18, 12, 15
15, 9, 12, 6
14, 11, 2, 8
12, 11, 9, 10
12, 13, 13, 10
18, 13, 13, 12
8, 8, 17, 13
10, 13, 5, 15
13, 8, 9, 11
11, 14, 14, 12
13, 10, 9, 9
12, 10, 14, 4
8, 15, 8, 16
15, 9, 14, 11
5, 10, 11, 10
14, 10, 15, 8
8, 10, 17, 12
6, 13, 9, 7
10, 15, 17, 15
11, 7, 11, 7
9, 15, 11, 6
7, 11, 10, 14
9, 9, 10, 10
11, 11, 11, 14
6, 11, 5, 8
12, 8, 10, 11
15, 11, 9, 9
11, 13, 5, 14
7, 12, 7, 7
7, 10, 9, 10
4, 7, 14, 9
6, 6, 17, 13
10, 12, 7, 9
11, 9, 15, 14
10, 13, 19, 6
8, 13, 20, 6
8, 12, 8, 3
11, 6, 8, 21
9, 13, 8, 7
14, 10, 11, 12
9, 7, 9, 6
6, 12, 10, 9
10, 8, 11, 12
11, 12, 12, 8
8, 13, 11, 12
5, 11, 13, 10
10, 10, 12, 9
13, 16, 9, 14
7, 9, 11, 5
7, 14, 8, 12
6, 7, 13, 11
10, 12, 14, 8
9, 13, 10, 10
6, 7, 12, 6
15, 12, 8, 16
7, 5, 9, 9
12, 14, 8, 5
7, 7, 6, 6
8, 9, 12, 7
10, 16, 11, 12
5, 11, 10, 8
10, 12, 6, 6
10, 7, 13, 11
7, 14, 11, 16
5, 6, 18, 9
11, 19, 10, 8
9, 20, 10, 11
10, 11, 10, 18
1, 15, 10, 10
16, 17, 6, 9
11, 14, 10, 8
11, 7, 8, 8
15, 2, 7, 10
18, 10, 8, 9
12, 9, 11, 8
5, 8, 11, 5
11, 7, 9, 12
7, 6, 12, 18
16, 9, 7, 14
8, 14, 16, 9
9, 11, 10, 7
8, 8, 6, 9
9, 14, 6, 10
17, 3, 8, 10
8, 9, 5, 6
8, 12, 7, 8
11, 6, 9, 13
13, 11, 8, 10
8, 6, 9, 6
15, 12, 9, 7
7, 4, 13, 9
8, 10, 9, 11
8, 9, 7, 5
10, 8, 10, 9
11, 7, 7, 10
8, 12, 4, 11
8, 4, 10, 3
7, 8, 9, 7
6, 9, 8, 9
5, 6, 9, 8
12, 7, 8, 9
7, 14, 5, 14
6, 4, 5, 7
8, 7, 8, 12
10, 10, 4, 8
11, 10, 13, 16
12, 7, 9, 9
6, 12, 14, 11
9, 4, 8, 12
6, 9, 12, 14
7, 11, 12, 4
11, 7, 5, 8
10, 7, 3, 8
7, 10, 8, 6
5, 9, 12, 7
12, 13, 8, 9
13, 6, 15, 4
8, 9, 7, 12
15, 15, 15, 4
7, 4, 6, 12
10, 8, 8, 9
6, 9, 8, 6
10, 11, 6, 9
13, 11, 7, 11
6, 7, 9, 4
7, 14, 9, 8
3, 12, 6, 9
10, 9, 13, 11
10, 5, 11, 10
14, 11, 4, 9
5, 6, 9, 8
8, 10, 6, 8
5, 7, 10, 15
6, 9, 11, 7
5, 13, 9, 13
7, 7, 9, 5
10, 12, 9, 8
11, 9, 6, 8
6, 12, 7, 7
6, 12, 15, 11
4, 11, 8, 12
12, 6, 7, 12
8, 11, 11, 12
10, 11, 10, 10
9, 9, 7, 4
12, 7, 7, 5
12, 5, 11, 12
9, 5, 7, 8
9, 12, 10, 11
12, 9, 7, 12
9, 4, 7, 15
10, 8, 6, 9
8, 10, 13, 10
12, 4, 11, 13
6, 4, 14, 9
16, 8, 9, 14
7, 10, 9, 4
10, 7, 6, 14
5, 3, 15, 4
9, 13, 10, 6
10, 6, 5, 13
8, 11, 6, 5
12, 5, 8, 14
5, 11, 4, 8
9, 6, 9, 18
11, 9, 7, 10
9, 12, 12, 9
7, 3, 11, 9
8, 11, 8, 12
9, 7, 7, 10
6, 15, 13, 5
9, 14, 8, 11
12, 11, 14, 9
10, 11, 7, 13
8, 12, 6, 9
15, 9, 6, 13
10, 7, 6, 11
5, 6, 15, 11
13, 8, 17, 4
7, 8, 9, 9
15, 8, 16, 7
12, 13, 7, 13
8, 9, 12, 13
7, 10, 12, 13
11, 10, 7, 10
8, 7, 11, 6
6, 6, 9, 10
10, 3, 9, 9
8, 14, 6, 8
15, 9, 10, 12
16, 11, 11, 8
14, 9, 5, 5
5, 11, 12, 9
6, 19, 7, 8
12, 8, 13, 8
12, 10, 6, 8
6, 9, 6, 2
9, 17, 11, 5
12, 6, 10, 12
7, 10, 7, 12
7, 13, 9, 11
12, 6, 7, 7
16, 9, 7, 15
12, 10, 9, 13
14, 11, 12, 11
7, 10, 18, 8
8, 5, 9, 12
6, 6, 7, 4
10, 7, 9, 9
9, 6, 8, 3
9, 8, 7, 8
10, 7, 10, 3
10, 10, 8, 7
15, 8, 9, 11
13, 16, 9, 11
10, 7, 7, 11
7, 7, 9, 8
8, 7, 3, 9
6, 5, 9, 3
10, 10, 9, 5
14, 5, 6, 17
10, 15, 13, 5
14, 11, 10, 13
12, 9, 11, 11
7, 12, 9, 9
8, 13, 8, 5
6, 9, 6, 6
8, 10, 10, 10
8, 8, 11, 9
9, 9, 8, 9
12, 3, 4, 15
11, 10, 6, 11
11, 14, 10, 8
9, 8, 13, 8
5
*END

*EOF