File: XRD-20251211/1-1_2-Theta_Omega.asc
*TYPE		=  Raw
*CLASS		=  ASCII CLASS
*SAMPLE		=
*COMMENT	=
*FNAME		=  1-1_2-Theta_Omega.asc
*DATE		=  11-Dec-25 14:53

*GROUP_COUNT	=  1
*GONIO		=  SmartLab(In-plane), 0.000000
*ATTACHMENT	=  Z-Phi Stage
*ASC		=  0, 0, 0.000000, 0.000000
*I_MONOCHRO	=  Soller_slit_5.0deg, 0.000000
*FILTER		=  None
*C_MONOCHRO	=  None, 0.000000
*SLIT_NAME	=  0, Incident slit
*SLIT_NAME	=  1, Receiving slit # 1
*SLIT_NAME	=  2, Receiving slit # 2
*COUNTER	=  SC-70, 0
*POS_FORMAT	=  0
*SCAN_AXIS	=  2Theta/Omega
*MEAS_MODE	=  Continuous Scanning
*TARGET		=  29
*XRAY_CHAR	=  K-ALPHA
*WAVE_LENGTH1	=  1.54059
*WAVE_LENGTH2	=  1.54441
*THICKNESS	=  0, 0.000000
*MU		=  0, 0.000000
*SCAN_MODE	=  2Theta/Omega
*SPEED_DIM	=  sec./step
*XUNIT		=  deg.
*YUNIT		=  counts
*SCALE_MODE	=  1
*REP_COUNT	=  0
*SE_COUNT	=  0
*STD_MATERIAL	=  Unknown, Unknown, 0.000000, 0.000000, 0.000000, 0.000000, 0.000000, 0.000000
*LATT_CONS	=  0, Unknown, Unknown, 0.000000, 0.000000, 0.000000, 0.000000, 0.000000, 0.000000
*SEC_COUNT	=  1
*TSPEC_SIZE	=  0
*EXTRA_SIZE	=  0
*MEMO		=

*BEGIN
*GROUP		=  0
*START		=  20
*STOP		=  80
*STEP		=  0.01
*OFFSET		=  0.000000
*SPEED		=  0.05
*SLIT_SPEC	=  0, 1.000mm, 1, 0.000000
*SLIT_SPEC	=  1, 1.000mm, 1, 0.000000
*SLIT_SPEC	=  2, 1.000mm, 1, 0.000000
*KV		=  40
*MA		=  100
*LOW		=  0.000000
*HIGH		=  0.000000
*CTEMPER	=  0, 0.000000
*CTEMPER	=  1, 0.000000
*CTEMPER	=  2, 0.000000
*PAREX		=  0, 0.000000
*PAREX		=  1, 0.000000
*PAREX		=  2, 0.000000
*PAREX		=  3, 0.000000
*PAREX		=  4, 0.000000
*PAREX		=  5, 0.000000
*PAREX		=  6, 0.000000
*PAREX		=  7, 0.000000
*PAREX		=  8, 0.000000
*PAREX		=  9, 0.000000
*PAREX		=  10, 0.000000
*PAREX		=  11, 0.000000
*PAREX		=  12, 0.000000
*PAREX		=  13, 0.000000
*PAREX		=  14, 0.000000
*PAREX		=  15, 0.000000
*FULL_SCALE	=  436968
*INDEX		=  0, 0, 0
*COUNT		=  6001
103, 99, 99, 105
102, 118, 87, 105
118, 122, 95, 86
102, 103, 99, 100
96, 93, 93, 113
116, 99, 107, 97
92, 99, 109, 111
111, 105, 101, 117
86, 95, 99, 114
116, 101, 124, 107
98, 107, 116, 114
87, 101, 88, 93
101, 102, 97, 126
110, 118, 113, 115
109, 102, 102, 90
105, 86, 101, 94
93, 78, 94, 91
101, 109, 108, 95
113, 109, 102, 81
98, 107, 93, 90
100, 112, 117, 112
91, 91, 130, 105
111, 99, 109, 105
115, 112, 100, 96
120, 93, 95, 98
90, 118, 110, 101
103, 111, 116, 119
96, 102, 107, 91
113, 98, 114, 118
99, 105, 106, 110
102, 100, 97, 112
96, 113, 89, 76
105, 89, 100, 104
82, 102, 107, 91
93, 108, 100, 98
97, 81, 96, 112
88, 119, 102, 94
109, 102, 97, 100
114, 99, 127, 115
91, 95, 102, 87
105, 104, 99, 104
111, 119, 89, 102
96, 99, 98, 111
99, 107, 89, 106
102, 102, 109, 92
101, 105, 104, 94
108, 101, 99, 103
105, 101, 110, 103
101, 94, 120, 87
95, 95, 112, 123
109, 91, 111, 94
114, 125, 112, 109
121, 117, 109, 108
124, 87, 87, 104
107, 112, 95, 102
105, 105, 124, 126
111, 100, 100, 100
124, 104, 108, 112
118, 121, 105, 109
113, 100, 110, 109
123, 104, 109, 100
106, 116, 102, 103
97, 106, 90, 93
97, 103, 105, 108
104, 117, 124, 98
111, 113, 132, 123
119, 97, 112, 125
124, 114, 129, 125
91, 135, 94, 89
118, 120, 113, 109
120, 131, 128, 102
104, 100, 103, 110
105, 116, 136, 131
102, 125, 99, 114
111, 113, 129, 104
98, 117, 114, 116
125, 114, 84, 115
110, 104, 104, 109
99, 121, 105, 107
113, 113, 113, 106
123, 105, 104, 113
108, 102, 116, 126
104, 125, 100, 125
117, 111, 108, 113
114, 117, 112, 103
102, 101, 110, 102
106, 118, 106, 103
114, 114, 96, 100
115, 101, 114, 121
94, 112, 108, 119
105, 131, 93, 94
102, 120, 105, 106
116, 92, 104, 95
105, 123, 104, 103
101, 94, 101, 99
98, 116, 104, 107
103, 112, 89, 117
111, 105, 88, 96
95, 98, 100, 103
102, 125, 86, 116
115, 92, 85, 100
95, 98, 106, 107
103, 96, 95, 105
79, 116, 93, 116
115, 100, 104, 102
121, 96, 97, 102
117, 114, 108, 92
115, 95, 114, 116
117, 106, 98, 121
111, 113, 118, 94
109, 120, 104, 108
101, 105, 108, 112
98, 92, 102, 125
91, 108, 106, 104
97, 111, 116, 101
90, 97, 105, 111
91, 104, 104, 97
109, 97, 97, 109
118, 93, 92, 109
89, 110, 99, 104
109, 104, 105, 115
106, 114, 120, 102
97, 111, 101, 104
105, 99, 117, 127
100, 99, 118, 107
104, 93, 124, 114
115, 110, 88, 105
108, 98, 102, 95
92, 104, 117, 125
104, 104, 123, 92
102, 121, 94, 124
101, 118, 94, 118
92, 98, 116, 111
94, 124, 121, 122
94, 97, 105, 111
112, 93, 110, 107
129, 105, 98, 102
127, 125, 109, 130
107, 135, 98, 113
116, 118, 111, 139
116, 130, 134, 112
123, 107, 108, 128
108, 126, 117, 111
104, 117, 127, 114
110, 112, 130, 110
112, 118, 108, 123
103, 120, 108, 120
139, 97, 111, 112
125, 128, 115, 107
94, 104, 119, 99
124, 119, 98, 112
123, 128, 106, 108
93, 112, 118, 122
106, 110, 102, 111
133, 124, 111, 113
115, 111, 114, 105
106, 119, 130, 117
105, 118, 118, 100
103, 126, 132, 127
124, 109, 132, 116
126, 111, 113, 123
112, 122, 117, 127
137, 130, 159, 129
140, 158, 133, 99
129, 152, 131, 147
137, 140, 156, 98
142, 161, 140, 160
166, 167, 147, 154
148, 150, 159, 147
117, 139, 160, 137
177, 119, 161, 153
144, 160, 145, 174
142, 168, 174, 165
207, 178, 205, 170
210, 201, 187, 190
198, 212, 184, 232
236, 263, 237, 263
280, 304, 282, 315
382, 381, 363, 380
463, 532, 534, 554
870, 892, 929, 1051
1437, 1485, 1591, 1696
2108, 2106, 2218, 2248
2331, 2336, 2302, 2270
2022, 2016, 2018, 1967
1717, 1553, 1534, 1485
1390, 1307, 1204, 1256
1030, 1050, 1036, 1026
900, 923, 837, 876
802, 744, 742, 767
746, 722, 749, 696
667, 651, 674, 638
602, 583, 537, 523
523, 486, 462, 504
445, 389, 399, 378
346, 337, 347, 326
326, 265, 329, 273
272, 253, 256, 274
238, 210, 200, 202
234, 202, 208, 217
187, 191, 177, 211
164, 171, 179, 171
168, 198, 156, 178
162, 160, 160, 169
144, 142, 145, 143
134, 132, 154, 112
140, 157, 147, 136
119, 142, 142, 121
124, 133, 133, 149
115, 124, 132, 121
144, 133, 138, 137
119, 112, 115, 119
122, 123, 115, 102
123, 116, 121, 123
116, 115, 133, 137
124, 133, 130, 108
128, 111, 107, 110
147, 100, 122, 128
106, 104, 122, 134
118, 123, 117, 126
122, 134, 114, 113
116, 99, 129, 106
113, 121, 110, 109
131, 106, 114, 92
117, 125, 110, 118
98, 98, 141, 113
134, 133, 121, 108
99, 122, 126, 142
106, 117, 123, 121
118, 125, 114, 123
129, 124, 114, 105
98, 94, 136, 115
121, 121, 103, 111
105, 117, 114, 126
120, 129, 98, 111
122, 130, 123, 124
120, 118, 121, 131
126, 99, 118, 118
127, 113, 102, 134
147, 119, 133, 132
130, 137, 119, 137
153, 164, 148, 152
202, 184, 191, 178
205, 186, 180, 198
182, 180, 163, 142
142, 108, 126, 122
142, 146, 135, 136
112, 129, 122, 131
133, 117, 115, 133
114, 135, 121, 132
146, 100, 102, 123
120, 129, 122, 110
135, 150, 137, 121
118, 132, 120, 135
137, 114, 114, 144
131, 122, 127, 126
127, 122, 118, 135
124, 113, 127, 105
140, 131, 115, 124
135, 129, 143, 132
127, 118, 116, 132
115, 134, 124, 125
141, 116, 146, 123
111, 142, 121, 123
135, 130, 131, 137
135, 145, 156, 143
144, 136, 146, 144
142, 147, 148, 157
146, 143, 142, 150
161, 190, 177, 183
270, 299, 354, 344
268, 245, 209, 228
313, 271, 273, 244
280, 288, 287, 313
326, 308, 309, 342
268, 287, 279, 260
206, 224, 219, 218
204, 211, 201, 214
226, 205, 212, 193
218, 212, 195, 217
185, 174, 216, 196
173, 224, 188, 187
219, 205, 223, 212
203, 166, 229, 206
223, 203, 194, 218
226, 188, 205, 204
217, 229, 221, 240
206, 220, 233, 221
236, 232, 237, 231
236, 229, 261, 245
253, 267, 283, 291
279, 281, 291, 334
290, 332, 338, 321
345, 416, 403, 389
560, 551, 580, 677
1005, 1110, 1293, 1523
3304, 3919, 4621, 5484
9844, 10608, 11501, 12503
16566, 17101, 17596, 18088
17375, 16623, 16249, 15448
11856, 11028, 10098, 9149
5158, 4677, 4268, 3598
1917, 1670, 1437, 1277
727, 714, 677, 676
540, 519, 557, 528
459, 424, 410, 411
334, 373, 322, 358
274, 279, 244, 262
211, 225, 221, 218
191, 202, 217, 175
195, 209, 182, 164
174, 162, 178, 157
162, 182, 163, 179
139, 169, 134, 165
148, 150, 151, 142
145, 141, 134, 155
131, 154, 136, 152
151, 163, 138, 147
128, 156, 147, 148
131, 144, 142, 137
143, 131, 135, 144
145, 152, 153, 138
159, 123, 142, 151
122, 119, 144, 151
122, 129, 144, 125
124, 117, 116, 123
118, 136, 142, 135
137, 138, 136, 123
137, 126, 121, 146
119, 107, 124, 137
147, 139, 118, 127
102, 130, 135, 143
134, 143, 123, 127
140, 115, 139, 145
112, 123, 136, 123
129, 122, 137, 130
134, 145, 143, 140
110, 117, 143, 124
144, 117, 119, 143
115, 139, 142, 133
151, 124, 137, 110
120, 122, 145, 129
133, 135, 140, 124
124, 125, 138, 136
137, 144, 123, 135
136, 136, 138, 129
131, 144, 130, 146
115, 144, 141, 134
122, 114, 125, 134
140, 133, 126, 123
141, 147, 129, 117
138, 121, 119, 117
133, 168, 134, 128
132, 116, 152, 120
134, 129, 137, 117
129, 145, 144, 133
114, 139, 134, 149
132, 131, 120, 117
121, 111, 108, 116
119, 121, 115, 135
125, 151, 134, 130
126, 122, 122, 136
131, 139, 126, 121
123, 145, 131, 122
129, 112, 140, 130
106, 130, 125, 137
138, 123, 111, 140
149, 123, 148, 129
127, 115, 136, 149
128, 109, 129, 142
131, 127, 118, 125
130, 122, 130, 116
139, 130, 133, 134
122, 117, 151, 117
126, 126, 155, 126
118, 125, 146, 134
126, 128, 119, 124
139, 137, 132, 142
135, 134, 117, 110
123, 106, 134, 132
132, 138, 122, 114
124, 141, 126, 122
146, 134, 121, 119
134, 125, 116, 138
115, 129, 117, 126
129, 119, 149, 145
122, 134, 120, 153
128, 143, 136, 109
109, 136, 132, 134
134, 136, 142, 120
128, 142, 121, 117
142, 105, 136, 122
132, 115, 139, 115
134, 139, 113, 122
140, 117, 127, 139
158, 128, 117, 132
119, 130, 118, 143
140, 150, 140, 125
141, 138, 113, 123
148, 135, 128, 128
136, 109, 119, 125
116, 135, 112, 139
116, 127, 139, 121
131, 123, 130, 137
135, 112, 124, 136
148, 121, 122, 131
132, 126, 132, 130
130, 126, 131, 133
148, 131, 134, 130
147, 127, 126, 130
137, 131, 138, 139
116, 137, 139, 146
113, 135, 130, 141
116, 141, 135, 129
142, 131, 119, 147
117, 133, 128, 153
118, 137, 125, 124
128, 130, 131, 142
131, 137, 132, 134
126, 147, 121, 122
121, 117, 115, 129
137, 122, 139, 139
123, 99, 140, 126
120, 116, 141, 129
144, 110, 131, 142
137, 138, 155, 141
130, 117, 128, 131
122, 134, 125, 142
142, 140, 133, 133
137, 141, 133, 123
119, 106, 137, 131
136, 147, 127, 150
129, 133, 113, 131
134, 147, 123, 120
130, 136, 137, 159
111, 126, 128, 120
144, 157, 144, 142
144, 130, 131, 144
118, 133, 129, 127
122, 132, 148, 126
146, 134, 133, 127
140, 134, 143, 123
136, 145, 117, 133
146, 114, 130, 116
120, 145, 127, 121
149, 120, 122, 133
128, 132, 136, 124
134, 119, 121, 141
116, 133, 143, 121
145, 141, 128, 125
152, 136, 139, 148
118, 125, 134, 174
116, 143, 140, 141
115, 134, 130, 135
147, 146, 144, 134
132, 137, 134, 140
128, 131, 129, 131
137, 153, 126, 130
146, 134, 131, 126
137, 143, 136, 132
135, 129, 127, 147
149, 132, 112, 128
147, 129, 149, 132
135, 127, 127, 127
111, 104, 125, 134
120, 136, 144, 131
132, 146, 138, 118
136, 118, 126, 147
129, 140, 138, 137
129, 119, 135, 142
149, 146, 151, 142
125, 146, 119, 150
114, 140, 156, 125
135, 137, 143, 128
146, 138, 133, 116
112, 132, 120, 133
140, 150, 130, 125
126, 129, 139, 131
136, 131, 149, 131
131, 135, 142, 127
139, 146, 159, 132
127, 131, 126, 127
121, 115, 130, 148
123, 111, 131, 130
128, 145, 137, 113
134, 154, 119, 112
128, 140, 134, 146
137, 132, 121, 126
147, 134, 143, 136
132, 129, 136, 134
136, 115, 142, 134
118, 137, 139, 163
129, 144, 134, 147
133, 154, 133, 132
130, 134, 144, 123
134, 126, 154, 139
143, 135, 144, 154
126, 147, 149, 133
131, 122, 127, 130
165, 134, 143, 141
137, 144, 140, 127
174, 146, 125, 129
133, 134, 163, 127
129, 138, 140, 130
138, 137, 142, 145
137, 105, 127, 146
164, 131, 111, 152
145, 158, 154, 136
129, 133, 156, 138
137, 132, 125, 131
139, 151, 125, 142
124, 129, 140, 130
147, 139, 111, 150
136, 127, 143, 125
136, 138, 129, 131
146, 117, 121, 136
124, 139, 149, 124
121, 137, 132, 127
136, 133, 157, 147
131, 140, 127, 129
127, 129, 151, 146
139, 152, 153, 124
141, 143, 129, 164
115, 155, 148, 142
150, 128, 154, 145
133, 139, 149, 138
150, 133, 147, 128
142, 132, 146, 141
126, 138, 133, 144
135, 123, 150, 165
162, 140, 136, 147
131, 140, 120, 123
127, 125, 152, 129
144, 147, 123, 141
130, 121, 132, 136
147, 160, 128, 132
152, 135, 120, 156
137, 154, 133, 119
126, 120, 163, 150
136, 133, 129, 143
138, 141, 137, 123
166, 113, 128, 144
131, 146, 137, 133
137, 151, 152, 135
112, 143, 167, 141
138, 146, 138, 122
149, 144, 151, 138
129, 147, 167, 148
140, 139, 154, 141
139, 118, 143, 138
151, 134, 136, 147
145, 145, 140, 171
146, 154, 139, 130
129, 166, 145, 169
128, 163, 160, 150
158, 183, 172, 158
161, 179, 192, 161
150, 159, 160, 158
181, 150, 151, 145
151, 174, 158, 150
164, 134, 158, 149
160, 148, 153, 147
143, 148, 160, 143
163, 128, 141, 175
140, 117, 135, 140
130, 152, 135, 128
155, 147, 161, 140
126, 142, 143, 129
116, 136, 152, 158
130, 157, 129, 143
144, 150, 134, 135
125, 154, 152, 136
133, 139, 130, 137
147, 157, 172, 133
141, 137, 134, 142
152, 147, 147, 146
131, 150, 134, 133
143, 145, 121, 142
140, 143, 166, 150
128, 138, 153, 159
156, 129, 125, 144
151, 142, 122, 152
135, 165, 144, 145
137, 145, 153, 140
155, 145, 154, 143
128, 123, 135, 158
161, 164, 159, 174
139, 157, 153, 130
157, 136, 146, 148
162, 127, 150, 163
148, 139, 150, 142
155, 146, 142, 148
152, 132, 143, 148
135, 137, 145, 137
150, 153, 124, 143
167, 126, 140, 145
151, 148, 164, 124
138, 135, 144, 139
147, 152, 163, 160
114, 147, 161, 145
126, 156, 153, 152
139, 146, 149, 157
133, 160, 132, 135
142, 157, 160, 150
152, 133, 134, 133
129, 158, 144, 185
148, 127, 131, 136
139, 121, 154, 122
135, 149, 143, 148
154, 147, 156, 149
144, 151, 136, 121
152, 155, 141, 139
130, 157, 138, 146
141, 156, 152, 141
127, 148, 128, 140
118, 150, 159, 161
149, 142, 134, 155
156, 142, 170, 144
141, 149, 150, 132
155, 122, 147, 152
151, 155, 170, 138
131, 143, 135, 132
132, 154, 151, 149
150, 139, 145, 147
152, 142, 156, 145
140, 165, 152, 136
158, 143, 134, 138
147, 150, 151, 139
132, 131, 132, 152
134, 151, 145, 157
142, 139, 133, 156
138, 143, 130, 157
153, 137, 148, 120
142, 127, 153, 157
155, 156, 157, 149
126, 154, 167, 151
157, 152, 161, 143
151, 135, 148, 159
138, 133, 144, 157
148, 161, 133, 159
175, 167, 145, 166
148, 137, 156, 135
160, 156, 151, 149
178, 169, 156, 152
153, 159, 140, 148
157, 162, 178, 160
196, 136, 157, 168
170, 158, 124, 141
133, 174, 156, 147
143, 133, 131, 153
145, 160, 135, 145
149, 158, 147, 150
163, 155, 149, 147
149, 173, 142, 179
192, 150, 155, 137
166, 157, 138, 161
137, 161, 158, 164
170, 154, 167, 156
150, 177, 157, 156
168, 177, 190, 172
180, 166, 180, 172
184, 208, 200, 200
199, 220, 229, 222
216, 226, 200, 225
232, 196, 201, 228
223, 227, 193, 219
185, 196, 192, 181
218, 216, 220, 200
185, 207, 183, 183
156, 176, 200, 188
179, 194, 186, 189
168, 183, 220, 175
174, 179, 187, 168
165, 188, 180, 175
154, 164, 158, 181
147, 157, 175, 169
170, 182, 196, 194
180, 186, 188, 179
183, 161, 165, 188
186, 175, 178, 170
173, 157, 162, 180
164, 161, 170, 189
205, 192, 189, 170
186, 177, 163, 192
202, 199, 210, 199
182, 193, 210, 220
236, 243, 229, 252
318, 274, 342, 365
495, 510, 573, 625
816, 856, 832, 939
1148, 1143, 1144, 1142
1295, 1231, 1241, 1264
1166, 1125, 1171, 1097
951, 912, 893, 867
707, 706, 675, 656
495, 509, 461, 460
311, 318, 313, 318
206, 196, 233, 233
225, 196, 210, 205
189, 202, 221, 171
184, 173, 161, 184
179, 182, 190, 163
184, 150, 151, 165
156, 177, 144, 173
173, 143, 153, 160
131, 165, 167, 151
149, 167, 168, 166
156, 177, 166, 176
157, 146, 148, 168
161, 162, 159, 188
160, 148, 162, 131
167, 177, 160, 166
159, 139, 158, 164
143, 138, 175, 164
164, 147, 161, 159
145, 163, 154, 179
142, 182, 169, 159
170, 158, 149, 147
174, 160, 148, 176
158, 149, 135, 146
139, 160, 162, 152
153, 140, 158, 152
185, 146, 152, 175
119, 165, 163, 161
163, 172, 140, 184
156, 144, 149, 167
166, 151, 156, 145
160, 151, 160, 144
167, 162, 150, 159
126, 150, 143, 154
167, 157, 147, 152
152, 159, 145, 175
152, 162, 149, 181
173, 160, 187, 171
140, 162, 170, 163
141, 167, 146, 136
155, 164, 166, 161
147, 142, 180, 158
171, 146, 142, 150
151, 152, 142, 168
165, 178, 152, 158
163, 179, 148, 138
149, 173, 166, 158
156, 143, 161, 180
161, 146, 145, 144
171, 167, 160, 171
155, 159, 142, 154
161, 160, 166, 153
167, 184, 153, 166
149, 155, 148, 153
185
*END

*EOF