File: XRD-20251211/1-2_2-Theta_Omega.asc
*TYPE		=  Raw
*CLASS		=  ASCII CLASS
*SAMPLE		=
*COMMENT	=
*FNAME		=  1-2_2-Theta_Omega.asc
*DATE		=  11-Dec-25 15:02

*GROUP_COUNT	=  1
*GONIO		=  SmartLab(In-plane), 0.000000
*ATTACHMENT	=  Z-Phi Stage
*ASC		=  0, 0, 0.000000, 0.000000
*I_MONOCHRO	=  Soller_slit_5.0deg, 0.000000
*FILTER		=  None
*C_MONOCHRO	=  None, 0.000000
*SLIT_NAME	=  0, Incident slit
*SLIT_NAME	=  1, Receiving slit # 1
*SLIT_NAME	=  2, Receiving slit # 2
*COUNTER	=  SC-70, 0
*POS_FORMAT	=  0
*SCAN_AXIS	=  2Theta/Omega
*MEAS_MODE	=  Continuous Scanning
*TARGET		=  29
*XRAY_CHAR	=  K-ALPHA
*WAVE_LENGTH1	=  1.54059
*WAVE_LENGTH2	=  1.54441
*THICKNESS	=  0, 0.000000
*MU		=  0, 0.000000
*SCAN_MODE	=  2Theta/Omega
*SPEED_DIM	=  sec./step
*XUNIT		=  deg.
*YUNIT		=  counts
*SCALE_MODE	=  1
*REP_COUNT	=  0
*SE_COUNT	=  0
*STD_MATERIAL	=  Unknown, Unknown, 0.000000, 0.000000, 0.000000, 0.000000, 0.000000, 0.000000
*LATT_CONS	=  0, Unknown, Unknown, 0.000000, 0.000000, 0.000000, 0.000000, 0.000000, 0.000000
*SEC_COUNT	=  1
*TSPEC_SIZE	=  0
*EXTRA_SIZE	=  0
*MEMO		=

*BEGIN
*GROUP		=  0
*START		=  20
*STOP		=  80
*STEP		=  0.01
*OFFSET		=  0.000000
*SPEED		=  0.05
*SLIT_SPEC	=  0, 1.000mm, 1, 0.000000
*SLIT_SPEC	=  1, 1.000mm, 1, 0.000000
*SLIT_SPEC	=  2, 1.000mm, 1, 0.000000
*KV		=  40
*MA		=  100
*LOW		=  0.000000
*HIGH		=  0.000000
*CTEMPER	=  0, 0.000000
*CTEMPER	=  1, 0.000000
*CTEMPER	=  2, 0.000000
*PAREX		=  0, 0.000000
*PAREX		=  1, 0.000000
*PAREX		=  2, 0.000000
*PAREX		=  3, 0.000000
*PAREX		=  4, 0.000000
*PAREX		=  5, 0.000000
*PAREX		=  6, 0.000000
*PAREX		=  7, 0.000000
*PAREX		=  8, 0.000000
*PAREX		=  9, 0.000000
*PAREX		=  10, 0.000000
*PAREX		=  11, 0.000000
*PAREX		=  12, 0.000000
*PAREX		=  13, 0.000000
*PAREX		=  14, 0.000000
*PAREX		=  15, 0.000000
*FULL_SCALE	=  19513530
*INDEX		=  0, 0, 0
*COUNT		=  6001
88, 91, 97, 79
82, 85, 88, 79
103, 71, 91, 98
102, 82, 105, 82
93, 89, 72, 95
79, 94, 83, 88
99, 92, 108, 125
201, 210, 229, 191
145, 144, 109, 125
110, 91, 95, 72
76, 76, 78, 66
88, 79, 94, 79
79, 86, 79, 77
92, 97, 87, 99
98, 74, 75, 108
96, 80, 91, 104
98, 80, 92, 80
105, 91, 92, 89
89, 82, 84, 91
104, 96, 87, 107
81, 111, 103, 84
88, 86, 81, 70
91, 70, 90, 91
82, 108, 100, 114
77, 97, 89, 96
72, 91, 88, 87
105, 75, 94, 86
102, 101, 70, 83
91, 79, 110, 83
78, 71, 90, 100
91, 100, 82, 102
83, 95, 68, 109
97, 86, 113, 73
85, 76, 90, 101
87, 81, 89, 75
85, 86, 83, 86
79, 85, 90, 89
98, 91, 81, 77
79, 85, 86, 86
81, 82, 79, 94
97, 87, 84, 88
88, 88, 110, 86
97, 73, 90, 103
92, 107, 79, 84
103, 89, 77, 103
88, 96, 92, 95
88, 97, 87, 93
92, 89, 70, 86
98, 74, 87, 76
78, 92, 80, 80
87, 94, 80, 91
87, 93, 104, 63
94, 95, 85, 90
99, 81, 79, 109
94, 95, 90, 83
70, 83, 79, 88
88, 86, 102, 98
86, 82, 70, 87
91, 96, 81, 90
90, 104, 82, 77
99, 81, 99, 91
98, 81, 87, 82
84, 82, 88, 88
88, 90, 103, 85
97, 71, 91, 85
91, 80, 103, 76
109, 94, 82, 86
77, 81, 83, 74
96, 72, 108, 94
86, 80, 95, 89
98, 88, 92, 106
84, 89, 89, 92
94, 94, 88, 80
90, 90, 83, 86
109, 86, 88, 81
82, 83, 79, 87
88, 88, 78, 82
85, 81, 66, 80
82, 99, 93, 83
88, 99, 82, 91
90, 91, 89, 76
86, 81, 98, 85
95, 87, 107, 94
100, 101, 98, 98
98, 85, 89, 91
106, 86, 101, 76
75, 78, 99, 81
83, 113, 99, 98
104, 92, 89, 93
97, 125, 97, 96
83, 90, 105, 98
107, 68, 92, 95
107, 88, 96, 101
75, 94, 95, 91
108, 99, 97, 105
85, 96, 95, 99
91, 100, 92, 102
116, 101, 105, 114
100, 113, 118, 119
84, 90, 99, 80
90, 85, 103, 102
94, 97, 107, 90
96, 103, 104, 101
105, 96, 91, 86
100, 82, 94, 94
88, 93, 103, 108
102, 100, 100, 109
98, 100, 100, 111
122, 122, 125, 121
105, 130, 128, 111
94, 94, 97, 87
97, 101, 99, 86
94, 108, 118, 101
109, 86, 87, 93
81, 116, 108, 113
112, 87, 95, 101
97, 111, 104, 90
104, 97, 88, 109
92, 95, 94, 104
99, 85, 98, 88
94, 104, 91, 96
85, 96, 95, 121
94, 110, 98, 107
85, 106, 96, 106
118, 104, 83, 78
111, 91, 90, 116
83, 101, 90, 81
110, 108, 101, 104
100, 111, 92, 84
102, 103, 95, 101
117, 99, 113, 88
94, 96, 103, 97
93, 130, 94, 98
96, 98, 92, 100
120, 90, 110, 93
107, 101, 141, 123
143, 154, 152, 154
172, 187, 191, 201
344, 365, 465, 590
1538, 1702, 2032, 2233
3095, 3086, 2979, 2798
1525, 1291, 1136, 920
417, 370, 346, 336
238, 248, 231, 240
242, 220, 214, 210
231, 204, 208, 239
230, 244, 208, 209
222, 247, 201, 210
203, 224, 246, 217
232, 261, 247, 251
241, 229, 245, 233
239, 234, 243, 255
263, 232, 303, 272
273, 265, 323, 277
298, 306, 322, 312
315, 331, 315, 358
357, 331, 392, 333
387, 374, 373, 374
459, 453, 484, 441
529, 503, 523, 536
557, 621, 621, 600
731, 711, 766, 785
1221, 1321, 1597, 1817
3807, 4419, 4754, 5196
6382, 6386, 6181, 5895
3747, 3280, 3034, 2795
2175, 2140, 2244, 2237
2485, 2545, 2489, 2534
2249, 2035, 2023, 2030
1907, 1905, 1816, 1821
1922, 1877, 2060, 1920
2096, 2082, 2076, 2107
2314, 2262, 2203, 2273
2381, 2371, 2443, 2423
2586, 2697, 2594, 2646
2818, 2780, 2817, 2904
3079, 3050, 3047, 3131
3508, 3356, 3516, 3616
4020, 4078, 4164, 4448
5451, 5717, 6345, 6960
11421, 13012, 15407, 17936
59116.6, 68642.5, 93204.4, 117299
367541, 444262, 518741, 585469
813064, 781965, 748577, 715050
477416, 434549, 376880, 334761
125284, 93531.3, 77654.8, 58556.3
17604.2, 14942.6, 11673.9, 10518
6117, 5647, 5235, 4890
3808, 3679, 3490, 3315
2776, 2658, 2499, 2542
2064, 2088, 2006, 1901
1700, 1603, 1634, 1562
1387, 1359, 1324, 1325
1164, 1187, 1127, 1155
1032, 1094, 1020, 1000
896, 912, 852, 908
778, 742, 779, 816
689, 657, 689, 649
574, 617, 582, 567
479, 520, 483, 502
414, 426, 430, 423
394, 380, 356, 324
298, 314, 296, 312
276, 234, 244, 268
220, 254, 230, 216
219, 197, 184, 193
173, 196, 212, 167
191, 182, 187, 173
170, 172, 167, 184
161, 179, 141, 153
166, 153, 157, 155
154, 157, 149, 157
138, 150, 138, 132
130, 140, 126, 115
128, 125, 137, 144
135, 165, 151, 137
123, 154, 136, 160
136, 145, 124, 135
121, 131, 144, 162
233, 267, 303, 332
235, 238, 194, 184
126, 111, 128, 139
122, 122, 120, 108
118, 144, 130, 123
124, 122, 133, 132
113, 108, 127, 133
134, 143, 121, 127
124, 132, 128, 109
118, 129, 136, 102
111, 116, 126, 101
115, 109, 115, 135
117, 121, 114, 97
106, 121, 148, 120
106, 111, 122, 124
92, 112, 101, 113
104, 103, 115, 98
125, 96, 128, 116
143, 98, 111, 108
109, 121, 113, 121
105, 119, 125, 128
119, 122, 118, 106
112, 130, 119, 108
127, 111, 115, 118
111, 130, 125, 117
139, 147, 157, 123
135, 149, 161, 143
158, 179, 169, 134
166, 168, 189, 181
284, 323, 381, 354
365, 391, 330, 307
189, 161, 173, 161
189, 147, 137, 169
161, 179, 185, 199
214, 194, 171, 166
171, 162, 170, 167
148, 138, 165, 165
166, 155, 153, 189
165, 148, 185, 144
168, 194, 177, 182
179, 166, 191, 185
179, 197, 171, 191
180, 205, 171, 179
175, 182, 178, 179
194, 201, 201, 200
214, 207, 212, 231
212, 214, 224, 239
246, 230, 203, 209
230, 274, 236, 262
312, 284, 348, 378
598, 652, 708, 677
928, 967, 1059, 1215
5273, 8343, 13571, 20639.5
41512.4, 36095.7, 29231.4, 21620.1
19005.1, 20125.8, 22554, 21339.9
4275, 2939, 1919, 1506
569, 571, 491, 488
356, 333, 354, 298
315, 290, 296, 277
233, 218, 243, 227
196, 191, 197, 212
189, 168, 204, 182
161, 159, 170, 174
163, 171, 147, 144
157, 157, 140, 164
147, 152, 137, 139
157, 149, 131, 137
141, 163, 145, 150
131, 153, 128, 142
136, 155, 146, 136
123, 141, 160, 177
140, 128, 132, 128
154, 144, 153, 129
148, 118, 162, 127
163, 136, 152, 143
152, 159, 170, 168
161, 171, 164, 170
207, 184, 209, 227
269, 264, 282, 340
513, 532, 647, 819
1837, 2161, 2240, 2571
3581, 3722, 3999, 4208
5549, 5671, 5968, 6151
5496, 5046, 4790, 4409
3009, 2589, 2554, 2236
1189, 1040, 815, 748
332, 324, 340, 310
235, 256, 216, 187
184, 184, 171, 170
143, 150, 133, 140
119, 131, 139, 126
136, 122, 143, 117
110, 125, 120, 121
120, 102, 116, 125
125, 101, 98, 111
111, 131, 108, 122
96, 125, 115, 119
98, 107, 126, 127
115, 105, 107, 110
110, 124, 104, 112
110, 107, 120, 94
114, 93, 118, 91
115, 123, 107, 113
103, 112, 98, 103
112, 117, 98, 99
103, 107, 122, 107
113, 101, 107, 130
100, 113, 116, 100
105, 122, 100, 100
116, 86, 128, 93
102, 99, 93, 95
120, 107, 104, 109
97, 98, 95, 101
99, 96, 111, 112
107, 109, 107, 114
107, 102, 89, 108
98, 118, 103, 104
110, 111, 93, 95
109, 117, 112, 106
115, 100, 116, 107
126, 89, 108, 103
108, 107, 116, 112
106, 106, 98, 103
104, 86, 117, 126
106, 104, 105, 115
96, 101, 95, 90
88, 108, 94, 115
93, 112, 128, 98
103, 107, 109, 95
101, 106, 106, 112
102, 93, 124, 105
101, 93, 107, 116
91, 90, 109, 122
89, 99, 110, 93
113, 111, 117, 91
115, 101, 96, 117
115, 108, 97, 97
100, 120, 83, 105
117, 127, 97, 96
95, 100, 118, 111
114, 95, 111, 101
117, 107, 118, 102
102, 122, 88, 120
85, 114, 117, 87
112, 104, 105, 89
124, 96, 102, 84
104, 91, 102, 117
104, 117, 98, 114
97, 92, 107, 109
116, 92, 105, 88
117, 92, 100, 103
109, 108, 119, 117
94, 107, 116, 106
112, 96, 91, 86
112, 97, 94, 109
124, 124, 105, 92
108, 112, 100, 95
112, 100, 106, 113
104, 126, 107, 114
111, 112, 107, 117
100, 101, 124, 111
103, 99, 99, 88
92, 88, 107, 107
98, 99, 102, 106
111, 108, 96, 101
96, 90, 114, 105
103, 105, 102, 97
109, 105, 114, 109
100, 112, 115, 105
114, 108, 90, 100
117, 104, 120, 108
119, 111, 109, 104
103, 102, 89, 103
104, 124, 105, 114
94, 110, 115, 113
100, 124, 89, 87
108, 112, 122, 99
97, 95, 95, 117
112, 116, 99, 106
118, 114, 116, 91
121, 107, 105, 109
98, 102, 110, 101
119, 106, 96, 102
119, 99, 96, 84
105, 92, 125, 111
124, 106, 125, 111
109, 108, 93, 97
111, 104, 85, 92
102, 92, 101, 106
115, 105, 102, 100
112, 112, 116, 113
114, 120, 134, 125
125, 142, 143, 139
147, 153, 157, 157
127, 149, 140, 143
134, 123, 119, 137
118, 136, 115, 118
116, 115, 114, 101
98, 101, 113, 99
123, 112, 119, 107
114, 141, 129, 112
115, 87, 89, 111
110, 101, 109, 103
100, 107, 108, 101
139, 94, 111, 119
86, 109, 119, 114
122, 90, 95, 86
106, 132, 98, 113
108, 104, 104, 116
98, 109, 88, 114
99, 109, 108, 119
112, 129, 107, 103
96, 112, 133, 101
97, 104, 91, 102
106, 114, 126, 93
116, 83, 97, 104
118, 111, 117, 99
101, 107, 102, 123
100, 111, 105, 111
107, 101, 96, 118
108, 97, 98, 114
102, 110, 110, 107
98, 111, 108, 110
92, 108, 110, 125
110, 111, 110, 119
111, 114, 98, 101
103, 103, 83, 103
106, 83, 113, 109
89, 95, 101, 109
104, 109, 90, 110
96, 97, 103, 119
97, 117, 101, 89
88, 97, 117, 102
103, 113, 101, 111
114, 123, 111, 114
92, 100, 113, 103
110, 93, 89, 90
121, 93, 103, 98
107, 99, 108, 100
127, 101, 102, 100
94, 112, 101, 98
94, 113, 109, 119
122, 117, 107, 110
98, 80, 93, 109
99, 110, 94, 107
107, 111, 102, 106
112, 97, 108, 107
102, 127, 127, 108
115, 93, 129, 100
92, 108, 121, 97
111, 100, 104, 116
98, 116, 96, 93
108, 105, 103, 124
110, 101, 105, 122
118, 128, 95, 105
119, 103, 108, 107
109, 97, 112, 97
113, 110, 110, 114
125, 96, 100, 108
95, 78, 118, 86
110, 92, 102, 112
96, 120, 112, 86
84, 105, 106, 110
81, 91, 111, 95
106, 91, 109, 109
100, 111, 100, 98
104, 121, 127, 110
106, 114, 114, 119
117, 107, 99, 104
98, 112, 87, 118
120, 98, 97, 101
106, 111, 109, 116
104, 80, 113, 114
111, 106, 115, 112
119, 117, 99, 110
89, 114, 101, 86
109, 119, 111, 103
123, 111, 100, 120
100, 111, 107, 82
102, 116, 103, 99
113, 103, 100, 122
86, 114, 103, 92
108, 109, 105, 111
110, 107, 106, 85
113, 108, 107, 113
108, 112, 107, 124
121, 108, 101, 82
98, 94, 87, 118
124, 88, 120, 117
100, 108, 109, 115
111, 106, 101, 114
110, 124, 109, 102
109, 113, 93, 100
103, 104, 104, 107
93, 93, 112, 87
97, 107, 117, 114
114, 112, 114, 91
107, 99, 101, 108
113, 113, 102, 113
110, 120, 105, 119
105, 94, 104, 124
116, 113, 106, 139
98, 118, 85, 102
120, 101, 88, 118
89, 100, 104, 105
95, 110, 116, 117
105, 107, 94, 113
116, 112, 107, 110
116, 118, 96, 121
106, 112, 81, 101
115, 104, 97, 106
107, 93, 114, 100
99, 103, 97, 110
122, 108, 104, 115
121, 109, 106, 101
112, 101, 97, 99
93, 99, 109, 98
92, 95, 108, 103
99, 112, 98, 99
92, 102, 104, 112
95, 121, 104, 95
111, 95, 107, 110
125, 91, 130, 118
107, 117, 103, 99
133, 96, 104, 111
125, 116, 104, 112
94, 105, 110, 102
106, 118, 100, 109
115, 84, 109, 107
106, 99, 128, 124
106, 109, 99, 97
99, 118, 117, 112
101, 110, 107, 118
127, 105, 102, 113
121, 92, 107, 135
115, 118, 111, 130
118, 145, 135, 121
117, 135, 127, 131
148, 144, 160, 153
139, 137, 134, 152
160, 161, 201, 204
170, 162, 178, 188
276, 288, 333, 398
605, 564, 616, 552
493, 449, 433, 354
199, 225, 230, 148
170, 149, 125, 137
123, 121, 125, 115
124, 135, 143, 116
101, 121, 124, 114
114, 125, 114, 119
109, 111, 131, 122
112, 122, 134, 141
108, 128, 125, 122
114, 104, 124, 126
122, 114, 126, 134
99, 88, 97, 127
121, 125, 108, 137
135, 121, 113, 130
128, 123, 133, 118
121, 120, 127, 121
116, 131, 130, 114
111, 122, 130, 111
122, 140, 112, 112
119, 125, 109, 104
117, 140, 133, 107
129, 112, 122, 109
120, 107, 140, 125
124, 128, 115, 107
119, 123, 126, 109
116, 124, 142, 122
129, 126, 134, 145
110, 135, 129, 128
125, 126, 121, 122
132, 109, 128, 131
141, 120, 114, 115
117, 126, 117, 122
129, 142, 121, 113
103, 118, 120, 130
140, 144, 140, 149
112, 117, 140, 153
127, 115, 143, 116
129, 145, 122, 142
123, 125, 143, 131
137, 124, 139, 135
161, 124, 122, 143
132, 135, 131, 127
147, 135, 131, 134
142, 138, 142, 137
132, 151, 149, 141
143, 148, 158, 141
137, 127, 155, 161
159, 149, 180, 178
177, 147, 151, 151
172, 185, 174, 194
202, 177, 192, 182
203, 209, 242, 263
327, 401, 414, 449
759, 848, 903, 970
1216, 1130, 1131, 1118
725, 691, 622, 600
347, 366, 333, 306
277, 253, 245, 255
281, 238, 295, 246
206, 263, 266, 247
320, 281, 306, 330
351, 411, 401, 393
412, 377, 382, 372
286, 292, 341, 285
268, 264, 259, 281
258, 234, 256, 223
243, 219, 254, 297
261, 286, 257, 297
264, 254, 300, 255
279, 278, 284, 263
285, 282, 293, 271
296, 261, 302, 305
310, 306, 290, 336
314, 305, 317, 334
324, 307, 334, 307
318, 298, 306, 317
346, 332, 323, 324
354, 335, 341, 341
358, 352, 356, 384
396, 358, 375, 393
379, 342, 378, 399
361, 392, 386, 407
413, 435, 395, 442
390, 429, 408, 438
398, 435, 448, 430
456, 455, 477, 437
466, 484, 437, 516
509, 495, 488, 493
503, 547, 518, 532
573, 624, 669, 599
692, 679, 734, 721
877, 894, 948, 950
1322, 1427, 1517, 1652
2099, 2298, 2294, 2397
2635, 2749, 2749, 2856
3929, 4481, 5055, 5815
14796, 19027, 23301.1, 29698.4
75646.9, 88815, 103618, 118093
141394, 138686, 127059, 114544
60844.4, 54447.1, 49123.8, 46322
61311.3, 64066.4, 67148.3, 70463.7
55381, 48516.7, 38430.5, 36235.8
14895.9, 11477, 9096, 7515
3517, 3069, 2627, 2543
1694, 1686, 1451, 1477
1114, 1090, 1054, 979
895, 749, 858, 805
734, 682, 666, 662
574, 587, 557, 572
490, 505, 475, 487
459, 473, 424, 451
410, 411, 422, 409
398, 413, 372, 390
351, 336, 380, 336
361, 283, 335, 346
327, 310, 317, 316
286, 299, 268, 289
270, 272, 277, 287
261, 254, 242, 272
249, 265, 239, 229
235, 247, 246, 241
243, 200, 244, 227
226, 235, 252, 245
237, 246, 224, 244
227, 252, 256, 261
273, 263, 256, 243
347, 339, 369, 385
692, 768, 871, 957
1289, 1339, 1346, 1401
1695, 1822, 1903, 1980
1860, 1844, 1784, 1783
1191, 1118, 1041, 942
946, 971, 1001, 981
775, 747, 661, 603
295, 242, 268, 238
226, 197, 171, 172
163, 188, 189, 174
151, 154, 159, 162
168, 149, 138, 131
157, 162, 144, 155
145, 133, 137, 156
122, 131, 123, 146
121, 139, 146, 130
124, 113, 148, 138
128, 127, 140, 130
123, 139, 138, 116
111, 134, 130, 112
137, 130, 140, 122
121, 138, 123, 146
135, 136, 111, 111
119, 128, 137, 129
129, 112, 125, 126
118, 140, 151, 112
122, 134, 128, 114
133, 119, 110, 114
138, 121, 131, 126
133, 149, 122, 131
119, 132, 125, 128
124, 100, 118, 118
123, 122, 130, 146
126, 109, 132, 113
116, 106, 99, 111
102, 129, 130, 117
116, 131, 102, 118
127, 119, 123, 125
107, 119, 123, 111
135, 117, 125, 128
104, 116, 93, 117
109, 105, 132, 137
108, 126, 110, 98
119, 115, 119, 97
104, 102, 116, 126
108, 122, 121, 105
105, 115, 125, 122
99, 102, 120, 138
111, 119, 106, 110
120, 101, 122, 108
116, 128, 133, 139
129, 124, 137, 112
105, 117, 132, 118
137, 126, 110, 125
127, 116, 104, 120
102, 136, 127, 113
128, 116, 119, 102
139, 120, 131, 131
126, 151, 178, 184
260
*END

*EOF