File: XRD-20251211/1-3_2-Theta_Omega.asc
*TYPE		=  Raw
*CLASS		=  ASCII CLASS
*SAMPLE		=
*COMMENT	=
*FNAME		=  1-3_2-Theta_Omega.asc
*DATE		=  11-Dec-25 15:12

*GROUP_COUNT	=  1
*GONIO		=  SmartLab(In-plane), 0.000000
*ATTACHMENT	=  Z-Phi Stage
*ASC		=  0, 0, 0.000000, 0.000000
*I_MONOCHRO	=  Soller_slit_5.0deg, 0.000000
*FILTER		=  None
*C_MONOCHRO	=  None, 0.000000
*SLIT_NAME	=  0, Incident slit
*SLIT_NAME	=  1, Receiving slit # 1
*SLIT_NAME	=  2, Receiving slit # 2
*COUNTER	=  SC-70, 0
*POS_FORMAT	=  0
*SCAN_AXIS	=  2Theta/Omega
*MEAS_MODE	=  Continuous Scanning
*TARGET		=  29
*XRAY_CHAR	=  K-ALPHA
*WAVE_LENGTH1	=  1.54059
*WAVE_LENGTH2	=  1.54441
*THICKNESS	=  0, 0.000000
*MU		=  0, 0.000000
*SCAN_MODE	=  2Theta/Omega
*SPEED_DIM	=  sec./step
*XUNIT		=  deg.
*YUNIT		=  counts
*SCALE_MODE	=  1
*REP_COUNT	=  0
*SE_COUNT	=  0
*STD_MATERIAL	=  Unknown, Unknown, 0.000000, 0.000000, 0.000000, 0.000000, 0.000000, 0.000000
*LATT_CONS	=  0, Unknown, Unknown, 0.000000, 0.000000, 0.000000, 0.000000, 0.000000, 0.000000
*SEC_COUNT	=  1
*TSPEC_SIZE	=  0
*EXTRA_SIZE	=  0
*MEMO		=

*BEGIN
*GROUP		=  0
*START		=  20
*STOP		=  80
*STEP		=  0.01
*OFFSET		=  0.000000
*SPEED		=  0.05
*SLIT_SPEC	=  0, 1.000mm, 1, 0.000000
*SLIT_SPEC	=  1, 1.000mm, 1, 0.000000
*SLIT_SPEC	=  2, 1.000mm, 1, 0.000000
*KV		=  40
*MA		=  100
*LOW		=  0.000000
*HIGH		=  0.000000
*CTEMPER	=  0, 0.000000
*CTEMPER	=  1, 0.000000
*CTEMPER	=  2, 0.000000
*PAREX		=  0, 0.000000
*PAREX		=  1, 0.000000
*PAREX		=  2, 0.000000
*PAREX		=  3, 0.000000
*PAREX		=  4, 0.000000
*PAREX		=  5, 0.000000
*PAREX		=  6, 0.000000
*PAREX		=  7, 0.000000
*PAREX		=  8, 0.000000
*PAREX		=  9, 0.000000
*PAREX		=  10, 0.000000
*PAREX		=  11, 0.000000
*PAREX		=  12, 0.000000
*PAREX		=  13, 0.000000
*PAREX		=  14, 0.000000
*PAREX		=  15, 0.000000
*FULL_SCALE	=  109728
*INDEX		=  0, 0, 0
*COUNT		=  6001
88, 71, 98, 71
77, 90, 101, 75
87, 82, 93, 71
81, 83, 80, 79
88, 96, 89, 94
96, 87, 78, 91
88, 82, 86, 101
88, 108, 95, 106
70, 82, 87, 76
73, 72, 89, 75
96, 103, 79, 81
104, 93, 89, 75
61, 98, 72, 86
83, 86, 94, 103
76, 80, 74, 74
102, 97, 85, 99
99, 94, 106, 101
76, 77, 81, 93
101, 82, 82, 94
80, 89, 80, 100
95, 85, 74, 88
95, 85, 83, 86
76, 76, 84, 76
87, 99, 89, 93
100, 98, 84, 97
80, 97, 93, 86
79, 85, 88, 101
97, 89, 79, 89
79, 86, 77, 92
97, 86, 91, 87
74, 88, 97, 89
86, 92, 93, 78
77, 84, 88, 105
82, 89, 78, 85
89, 84, 92, 100
86, 86, 98, 103
77, 93, 99, 86
89, 90, 103, 78
93, 82, 112, 81
97, 89, 100, 90
91, 78, 101, 107
76, 88, 83, 88
83, 99, 102, 82
87, 89, 88, 97
94, 63, 94, 78
106, 83, 81, 64
87, 91, 88, 91
82, 102, 92, 87
94, 85, 79, 87
80, 106, 94, 81
116, 81, 99, 88
88, 71, 93, 84
67, 88, 97, 75
84, 102, 93, 95
90, 85, 109, 104
107, 80, 85, 102
67, 96, 84, 93
84, 97, 93, 103
85, 89, 97, 70
77, 89, 96, 91
85, 92, 84, 92
92, 92, 93, 83
88, 82, 93, 82
94, 85, 91, 102
86, 91, 86, 96
87, 108, 95, 92
100, 79, 83, 96
76, 83, 83, 109
97, 114, 102, 93
82, 93, 94, 84
84, 75, 88, 100
70, 99, 81, 94
99, 105, 83, 101
83, 103, 99, 73
87, 87, 99, 90
99, 64, 79, 88
97, 82, 79, 84
86, 99, 92, 93
81, 93, 99, 104
87, 90, 99, 83
81, 121, 89, 91
97, 83, 106, 94
101, 104, 78, 83
98, 92, 97, 96
93, 93, 104, 94
87, 82, 86, 87
101, 91, 84, 77
87, 93, 89, 80
90, 80, 99, 90
90, 108, 80, 74
103, 95, 87, 93
85, 96, 95, 85
106, 91, 88, 83
103, 115, 81, 91
84, 78, 81, 100
89, 80, 105, 104
87, 91, 74, 81
97, 101, 71, 101
85, 88, 81, 100
88, 102, 106, 103
94, 92, 91, 100
95, 92, 95, 80
76, 80, 81, 93
107, 91, 76, 109
72, 107, 93, 92
103, 87, 96, 83
94, 87, 106, 108
93, 86, 78, 94
77, 88, 79, 87
93, 88, 86, 87
93, 94, 103, 105
90, 92, 95, 84
93, 94, 74, 79
82, 98, 99, 84
81, 85, 86, 86
78, 74, 101, 83
106, 107, 98, 89
98, 112, 89, 78
96, 93, 91, 96
86, 98, 105, 97
99, 89, 83, 87
99, 97, 97, 112
79, 86, 93, 90
123, 89, 84, 77
101, 97, 86, 86
96, 90, 91, 94
93, 81, 108, 84
113, 77, 87, 89
78, 85, 106, 100
99, 107, 90, 80
80, 101, 131, 121
115, 101, 96, 81
80, 105, 102, 104
95, 97, 86, 92
104, 95, 85, 83
97, 94, 113, 86
81, 98, 82, 101
82, 101, 100, 90
110, 97, 105, 111
81, 93, 97, 94
80, 85, 93, 87
96, 96, 92, 105
99, 103, 105, 99
96, 89, 80, 86
90, 103, 78, 96
92, 89, 88, 101
110, 100, 98, 102
97, 92, 84, 101
80, 87, 98, 105
100, 105, 82, 116
91, 89, 110, 94
94, 81, 91, 96
105, 108, 82, 102
90, 104, 100, 107
102, 110, 96, 107
103, 80, 109, 82
91, 111, 95, 106
87, 80, 96, 104
103, 118, 80, 102
103, 100, 106, 97
89, 90, 104, 82
73, 98, 89, 111
100, 74, 85, 91
104, 104, 96, 93
93, 103, 85, 90
102, 106, 98, 97
99, 92, 82, 111
99, 87, 90, 98
87, 97, 82, 95
95, 95, 95, 93
95, 97, 110, 97
76, 84, 102, 95
88, 90, 92, 99
98, 84, 99, 97
88, 95, 92, 94
92, 100, 101, 91
89, 84, 101, 124
96, 91, 115, 105
92, 102, 105, 91
82, 114, 100, 102
98, 99, 79, 77
109, 88, 96, 101
82, 101, 96, 98
105, 101, 112, 92
107, 90, 103, 89
101, 106, 110, 101
108, 98, 94, 88
132, 98, 104, 97
117, 104, 94, 89
109, 93, 87, 86
85, 94, 107, 108
106, 92, 100, 88
94, 95, 109, 96
105, 102, 85, 98
109, 89, 106, 109
108, 98, 92, 105
92, 86, 106, 103
89, 100, 106, 96
94, 100, 114, 92
102, 97, 85, 94
110, 103, 114, 99
103, 98, 93, 114
99, 93, 99, 106
103, 95, 105, 94
100, 101, 105, 100
105, 99, 88, 97
98, 105, 98, 95
112, 104, 99, 106
93, 100, 84, 110
83, 114, 97, 99
112, 117, 108, 97
97, 85, 97, 100
76, 82, 106, 117
92, 107, 91, 92
102, 104, 94, 90
99, 103, 88, 99
86, 110, 104, 100
103, 103, 115, 104
110, 87, 88, 99
93, 103, 100, 90
99, 107, 92, 84
108, 113, 116, 99
104, 93, 97, 108
110, 95, 99, 114
101, 101, 85, 93
90, 107, 102, 95
79, 100, 97, 94
86, 126, 101, 97
106, 90, 112, 105
92, 80, 108, 99
109, 107, 103, 108
105, 101, 97, 115
96, 111, 92, 105
89, 91, 93, 109
114, 115, 96, 100
106, 105, 113, 87
87, 100, 99, 77
95, 99, 103, 92
96, 90, 98, 98
100, 97, 88, 101
104, 82, 108, 115
96, 105, 105, 97
94, 99, 97, 105
98, 99, 110, 111
111, 114, 126, 110
120, 114, 123, 121
122, 115, 127, 103
107, 123, 88, 117
109, 101, 119, 119
111, 108, 109, 99
95, 124, 106, 84
92, 109, 104, 112
112, 93, 100, 100
95, 100, 103, 103
99, 93, 95, 99
103, 92, 102, 112
120, 97, 104, 107
122, 104, 93, 112
99, 89, 116, 97
124, 102, 110, 91
117, 97, 97, 104
108, 103, 96, 98
106, 115, 97, 94
96, 92, 111, 112
113, 89, 102, 113
92, 89, 102, 97
92, 119, 99, 121
106, 102, 119, 104
78, 119, 107, 110
95, 104, 120, 106
111, 91, 122, 99
108, 105, 118, 129
98, 105, 104, 109
103, 118, 128, 128
117, 140, 148, 135
120, 116, 127, 124
130, 115, 139, 149
150, 168, 155, 168
145, 134, 148, 150
129, 115, 122, 143
136, 125, 122, 119
141, 118, 110, 123
123, 97, 121, 121
129, 133, 118, 131
115, 127, 117, 116
104, 129, 123, 129
136, 107, 120, 133
112, 130, 116, 118
136, 131, 139, 128
126, 140, 133, 143
147, 140, 133, 119
142, 124, 117, 147
125, 134, 151, 154
149, 139, 138, 168
158, 148, 173, 160
187, 182, 164, 187
227, 191, 184, 221
291, 305, 344, 404
583, 653, 782, 920
1653, 1763, 1912, 2140
2922, 3114, 3284, 3358
3891, 3956, 4026, 3965
3966, 3962, 3710, 3625
2779, 2567, 2428, 2309
1522, 1388, 1228, 1155
704, 633, 558, 533
334, 310, 278, 266
223, 219, 196, 173
163, 151, 183, 158
145, 148, 154, 127
129, 147, 127, 139
134, 136, 98, 113
146, 120, 123, 113
115, 123, 104, 122
100, 130, 100, 127
114, 125, 128, 133
123, 109, 100, 96
139, 119, 124, 112
118, 123, 119, 103
115, 100, 113, 122
103, 103, 90, 112
116, 104, 102, 100
130, 122, 101, 97
103, 108, 119, 112
113, 121, 118, 103
112, 110, 126, 102
116, 102, 108, 106
88, 122, 109, 110
112, 125, 106, 97
107, 97, 112, 98
99, 107, 116, 106
105, 88, 114, 92
103, 101, 114, 106
97, 102, 134, 112
106, 106, 102, 95
106, 101, 116, 95
88, 103, 97, 95
105, 113, 91, 104
116, 103, 110, 126
109, 87, 104, 107
80, 97, 111, 112
107, 108, 100, 111
106, 109, 97, 93
93, 101, 106, 106
107, 97, 116, 95
106, 85, 118, 95
105, 102, 101, 115
120, 116, 129, 102
111, 93, 114, 109
109, 119, 118, 113
101, 118, 108, 117
120, 84, 106, 119
108, 121, 117, 95
107, 93, 117, 111
104, 99, 89, 95
113, 96, 110, 101
117, 112, 98, 94
114, 101, 110, 108
110, 96, 111, 112
105, 103, 111, 101
100, 125, 114, 102
118, 108, 118, 117
95, 112, 118, 96
120, 116, 103, 112
101, 120, 107, 97
120, 101, 118, 123
92, 114, 102, 94
89, 115, 116, 118
92, 95, 91, 105
97, 93, 117, 99
100, 101, 107, 100
108, 112, 99, 90
96, 116, 95, 119
118, 118, 91, 94
89, 96, 91, 102
120, 115, 120, 123
105, 122, 117, 102
113, 126, 101, 101
111, 109, 109, 114
112, 87, 99, 101
106, 95, 111, 106
110, 107, 115, 101
121, 110, 117, 103
102, 96, 127, 77
115, 94, 104, 94
109, 111, 112, 118
104, 106, 92, 102
102, 109, 95, 120
121, 95, 109, 103
99, 99, 97, 134
100, 103, 115, 112
118, 100, 128, 109
104, 101, 134, 113
93, 116, 114, 103
129, 104, 107, 125
105, 100, 93, 108
108, 107, 117, 112
106, 104, 113, 117
96, 107, 95, 80
118, 115, 103, 106
110, 100, 121, 102
117, 94, 105, 103
132, 114, 114, 121
105, 122, 91, 94
109, 101, 107, 101
98, 115, 107, 95
133, 117, 102, 98
112, 104, 105, 123
110, 120, 109, 94
98, 118, 112, 97
100, 109, 122, 94
104, 114, 108, 111
110, 108, 118, 123
104, 106, 103, 98
108, 110, 128, 114
129, 94, 111, 123
106, 98, 91, 94
104, 117, 123, 98
91, 127, 112, 114
120, 104, 102, 99
107, 108, 112, 119
109, 100, 117, 109
105, 95, 103, 122
101, 96, 122, 100
118, 106, 102, 104
110, 126, 104, 111
100, 98, 108, 124
118, 118, 103, 117
114, 97, 109, 108
101, 127, 99, 112
105, 99, 113, 136
112, 105, 120, 110
133, 101, 124, 120
104, 93, 102, 121
124, 103, 121, 110
95, 93, 109, 118
104, 103, 107, 110
125, 122, 115, 98
109, 107, 101, 127
122, 109, 106, 131
107, 124, 117, 102
110, 119, 98, 117
113, 99, 109, 107
102, 114, 114, 115
104, 105, 108, 98
94, 107, 105, 117
109, 130, 98, 101
115, 104, 100, 117
111, 98, 132, 106
107, 114, 120, 122
121, 103, 121, 125
107, 110, 113, 110
113, 118, 107, 108
110, 110, 111, 108
120, 115, 103, 98
113, 89, 116, 119
137, 103, 109, 112
106, 122, 97, 124
128, 104, 110, 133
113, 129, 123, 100
103, 127, 107, 119
110, 108, 100, 105
114, 111, 100, 109
115, 97, 95, 110
123, 103, 93, 118
105, 108, 109, 99
83, 105, 124, 92
100, 121, 135, 99
90, 112, 108, 104
132, 106, 100, 112
127, 114, 110, 127
109, 112, 93, 127
109, 129, 123, 117
110, 119, 103, 103
108, 89, 114, 120
118, 107, 117, 115
121, 108, 122, 106
117, 93, 112, 107
138, 126, 102, 75
90, 103, 100, 107
129, 105, 116, 121
103, 101, 138, 122
119, 115, 97, 123
114, 117, 113, 113
119, 106, 108, 100
91, 106, 108, 110
99, 100, 113, 119
97, 100, 109, 120
96, 107, 120, 122
98, 104, 122, 93
117, 110, 113, 117
104, 122, 103, 125
128, 109, 140, 118
113, 103, 115, 98
103, 120, 110, 130
105, 83, 108, 119
103, 110, 118, 127
105, 93, 118, 94
113, 121, 105, 110
107, 86, 123, 98
121, 114, 107, 88
138, 100, 105, 123
112, 136, 103, 101
125, 111, 109, 89
109, 135, 128, 109
104, 109, 124, 109
109, 94, 111, 118
108, 107, 107, 123
110, 106, 100, 119
101, 111, 104, 111
101, 106, 102, 94
119, 112, 116, 111
106, 114, 113, 119
107, 96, 105, 113
104, 125, 114, 120
111, 133, 106, 102
116, 96, 109, 92
97, 105, 113, 102
105, 115, 121, 109
116, 92, 112, 130
127, 95, 103, 119
116, 104, 121, 125
113, 104, 119, 105
105, 96, 117, 90
124, 116, 100, 101
118, 109, 122, 116
112, 105, 99, 106
97, 106, 131, 98
113, 102, 119, 119
118, 102, 91, 119
118, 112, 101, 110
107, 128, 120, 132
126, 120, 124, 98
120, 109, 94, 114
109, 96, 119, 104
101, 110, 109, 111
112, 118, 95, 117
109, 128, 126, 112
138, 116, 111, 119
103, 121, 112, 113
98, 110, 107, 107
113, 120, 103, 111
129, 119, 105, 117
121, 128, 108, 103
123, 114, 103, 113
117, 122, 96, 125
131, 119, 112, 101
113, 110, 119, 113
116, 104, 116, 117
131, 106, 97, 121
112, 125, 118, 109
107, 126, 108, 137
114, 124, 113, 132
119, 126, 137, 121
120, 132, 117, 130
134, 128, 131, 124
131, 109, 139, 121
135, 121, 139, 119
133, 140, 119, 121
117, 135, 122, 132
103, 132, 124, 124
117, 118, 115, 114
115, 117, 119, 112
118, 110, 117, 113
115, 113, 114, 95
97, 118, 124, 103
115, 134, 129, 114
112, 110, 106, 112
109, 122, 98, 114
111, 122, 124, 115
147, 131, 112, 95
103, 135, 114, 126
123, 115, 125, 116
115, 118, 126, 111
128, 106, 113, 114
129, 114, 120, 94
87, 102, 112, 116
123, 96, 105, 104
117, 111, 133, 105
114, 115, 130, 132
133, 98, 108, 126
104, 111, 116, 118
140, 127, 116, 110
130, 106, 104, 94
105, 94, 119, 109
123, 109, 102, 103
125, 115, 110, 120
123, 122, 121, 113
112, 120, 135, 114
141, 129, 139, 138
128, 120, 133, 125
136, 129, 120, 119
137, 121, 107, 126
126, 109, 99, 113
103, 111, 106, 135
129, 129, 112, 116
110, 102, 129, 93
106, 124, 124, 116
114, 114, 124, 106
119, 112, 130, 118
103, 124, 105, 108
103, 116, 102, 128
124, 121, 123, 122
130, 118, 96, 123
131, 126, 111, 115
116, 125, 109, 129
117, 140, 109, 91
124, 145, 110, 111
126, 147, 90, 121
107, 105, 132, 100
129, 102, 126, 131
91, 107, 111, 119
112, 103, 140, 128
111, 133, 122, 107
121, 95, 119, 108
110, 132, 116, 118
109, 103, 115, 104
108, 115, 134, 124
93, 117, 113, 104
100, 119, 118, 109
114, 117, 101, 110
125, 108, 129, 108
130, 98, 115, 115
126, 129, 141, 107
120, 117, 131, 123
119, 120, 123, 113
115, 126, 111, 125
135, 123, 116, 98
125, 135, 120, 122
123, 114, 137, 141
117, 110, 114, 120
99, 118, 122, 149
99, 123, 125, 122
114, 120, 111, 125
130, 94, 129, 114
114, 127, 121, 131
117, 108, 113, 110
118, 125, 119, 108
115, 140, 117, 105
116, 126, 95, 99
122, 133, 126, 123
114, 102, 125, 126
132, 125, 122, 133
114, 118, 119, 130
113, 148, 113, 137
110, 161, 120, 143
135, 131, 142, 145
176, 175, 157, 140
180, 178, 137, 132
160, 129, 136, 151
133, 142, 129, 135
133, 128, 125, 114
126, 131, 148, 116
138, 118, 120, 138
151, 126, 128, 120
141, 138, 136, 147
131, 122, 107, 139
147, 136, 142, 123
136, 133, 140, 105
138, 130, 121, 123
137, 147, 135, 124
133, 121, 122, 138
130, 128, 139, 140
147, 124, 143, 135
133, 128, 94, 152
140, 130, 141, 134
127, 133, 126, 131
135, 146, 126, 137
138, 112, 131, 131
154, 125, 151, 149
131, 148, 129, 114
109, 135, 133, 125
127, 119, 146, 129
135, 144, 126, 134
156, 140, 129, 147
114, 134, 151, 161
147, 128, 147, 167
140, 153, 146, 161
153, 123, 139, 153
143, 143, 144, 138
138, 148, 157, 133
123, 127, 140, 138
145, 143, 158, 129
158, 189, 171, 205
160, 169, 174, 170
183, 189, 192, 209
188, 231, 209, 237
290, 297, 298, 281
389, 416, 435, 441
560, 612, 650, 780
1048, 1203, 1311, 1357
2124, 2289, 2390, 2565
3451, 3569, 3734, 3993
4351, 4373, 4494, 4531
4548, 4401, 4454, 4279
3837, 3739, 3649, 3575
2818, 2794, 2669, 2602
1858, 1911, 1729, 1625
1148, 1120, 953, 884
601, 550, 498, 475
322, 315, 262, 261
223, 228, 214, 231
186, 201, 174, 174
158, 161, 147, 160
170, 154, 168, 151
141, 165, 144, 136
133, 136, 157, 119
140, 130, 171, 141
123, 138, 117, 115
140, 153, 152, 158
138, 142, 150, 119
116, 149, 144, 117
116, 116, 145, 118
140, 136, 124, 154
138, 115, 127, 133
156, 132, 132, 137
129, 136, 118, 120
138, 134, 133, 128
117, 115, 123, 119
136, 127, 113, 135
119, 120, 136, 144
140, 124, 121, 138
103, 115, 110, 131
132, 136, 126, 140
138, 130, 127, 135
145, 131, 108, 140
128, 126, 151, 124
126, 145, 131, 124
132, 119, 128, 131
128, 128, 147, 132
124, 97, 116, 140
117, 117, 125, 147
129, 130, 106, 110
127, 100, 142, 119
140, 128, 157, 143
135, 127, 96, 121
136, 125, 125, 157
147, 115, 129, 114
133, 122, 125, 133
132, 127, 110, 120
125, 147, 108, 117
116, 125, 138, 146
134, 131, 128, 117
125, 110, 119, 107
105, 130, 119, 106
118, 121, 121, 133
121, 126, 114, 138
131, 132, 107, 114
114, 136, 139, 119
134, 137, 137, 119
115
*END

*EOF