File: XRD-20251211/1-4_2-Theta_Omega.asc
*TYPE		=  Raw
*CLASS		=  ASCII CLASS
*SAMPLE		=
*COMMENT	=
*FNAME		=  1-4_2-Theta_Omega.asc
*DATE		=  11-Dec-25 15:21

*GROUP_COUNT	=  1
*GONIO		=  SmartLab(In-plane), 0.000000
*ATTACHMENT	=  Z-Phi Stage
*ASC		=  0, 0, 0.000000, 0.000000
*I_MONOCHRO	=  Soller_slit_5.0deg, 0.000000
*FILTER		=  None
*C_MONOCHRO	=  None, 0.000000
*SLIT_NAME	=  0, Incident slit
*SLIT_NAME	=  1, Receiving slit # 1
*SLIT_NAME	=  2, Receiving slit # 2
*COUNTER	=  SC-70, 0
*POS_FORMAT	=  0
*SCAN_AXIS	=  2Theta/Omega
*MEAS_MODE	=  Continuous Scanning
*TARGET		=  29
*XRAY_CHAR	=  K-ALPHA
*WAVE_LENGTH1	=  1.54059
*WAVE_LENGTH2	=  1.54441
*THICKNESS	=  0, 0.000000
*MU		=  0, 0.000000
*SCAN_MODE	=  2Theta/Omega
*SPEED_DIM	=  sec./step
*XUNIT		=  deg.
*YUNIT		=  counts
*SCALE_MODE	=  1
*REP_COUNT	=  0
*SE_COUNT	=  0
*STD_MATERIAL	=  Unknown, Unknown, 0.000000, 0.000000, 0.000000, 0.000000, 0.000000, 0.000000
*LATT_CONS	=  0, Unknown, Unknown, 0.000000, 0.000000, 0.000000, 0.000000, 0.000000, 0.000000
*SEC_COUNT	=  1
*TSPEC_SIZE	=  0
*EXTRA_SIZE	=  0
*MEMO		=

*BEGIN
*GROUP		=  0
*START		=  20
*STOP		=  80
*STEP		=  0.01
*OFFSET		=  0.000000
*SPEED		=  0.05
*SLIT_SPEC	=  0, 1.000mm, 1, 0.000000
*SLIT_SPEC	=  1, 1.000mm, 1, 0.000000
*SLIT_SPEC	=  2, 1.000mm, 1, 0.000000
*KV		=  40
*MA		=  100
*LOW		=  0.000000
*HIGH		=  0.000000
*CTEMPER	=  0, 0.000000
*CTEMPER	=  1, 0.000000
*CTEMPER	=  2, 0.000000
*PAREX		=  0, 0.000000
*PAREX		=  1, 0.000000
*PAREX		=  2, 0.000000
*PAREX		=  3, 0.000000
*PAREX		=  4, 0.000000
*PAREX		=  5, 0.000000
*PAREX		=  6, 0.000000
*PAREX		=  7, 0.000000
*PAREX		=  8, 0.000000
*PAREX		=  9, 0.000000
*PAREX		=  10, 0.000000
*PAREX		=  11, 0.000000
*PAREX		=  12, 0.000000
*PAREX		=  13, 0.000000
*PAREX		=  14, 0.000000
*PAREX		=  15, 0.000000
*FULL_SCALE	=  7440
*INDEX		=  0, 0, 0
*COUNT		=  6001
76, 75, 86, 78
72, 80, 79, 79
78, 84, 71, 75
77, 75, 78, 65
96, 76, 77, 77
95, 71, 92, 69
87, 84, 84, 94
95, 78, 70, 76
84, 87, 83, 82
71, 84, 84, 90
78, 78, 84, 107
82, 90, 87, 87
84, 73, 86, 95
88, 93, 94, 89
77, 78, 91, 75
74, 70, 74, 77
77, 70, 93, 77
80, 82, 79, 105
79, 83, 84, 75
61, 72, 67, 86
94, 59, 72, 80
97, 77, 90, 81
79, 80, 79, 57
76, 72, 69, 78
107, 83, 81, 105
91, 85, 109, 101
87, 99, 78, 79
64, 89, 76, 78
77, 86, 74, 99
75, 77, 69, 71
81, 72, 67, 92
84, 68, 78, 73
74, 82, 82, 66
78, 83, 73, 92
67, 62, 68, 60
74, 73, 91, 77
92, 80, 76, 77
64, 83, 84, 74
57, 68, 82, 75
84, 62, 76, 65
93, 61, 69, 81
70, 89, 74, 78
69, 78, 78, 88
72, 85, 79, 56
89, 92, 63, 67
60, 90, 77, 71
60, 79, 75, 90
84, 75, 71, 80
79, 81, 77, 90
87, 74, 85, 71
79, 90, 79, 70
76, 71, 67, 89
75, 75, 77, 95
74, 85, 102, 71
69, 75, 83, 61
76, 109, 92, 63
78, 72, 64, 68
77, 88, 63, 82
73, 76, 67, 83
68, 64, 89, 82
70, 74, 72, 64
97, 87, 82, 71
73, 62, 81, 67
78, 72, 76, 81
79, 69, 83, 81
78, 65, 89, 76
70, 73, 78, 89
65, 67, 70, 83
66, 79, 74, 65
82, 79, 67, 82
77, 72, 92, 79
89, 85, 78, 76
80, 78, 76, 85
87, 79, 85, 78
70, 70, 89, 70
77, 80, 57, 73
75, 85, 81, 74
74, 83, 66, 69
81, 77, 69, 84
100, 72, 69, 93
66, 82, 74, 84
78, 68, 88, 79
56, 82, 82, 85
89, 89, 79, 70
85, 81, 73, 66
74, 80, 86, 77
89, 73, 102, 88
85, 67, 69, 79
76, 74, 89, 68
77, 71, 80, 88
82, 67, 75, 68
78, 77, 82, 81
76, 48, 79, 86
73, 70, 76, 84
60, 51, 76, 72
77, 62, 61, 63
78, 59, 93, 76
69, 66, 77, 73
77, 71, 85, 81
79, 90, 70, 62
74, 75, 67, 81
72, 87, 71, 63
76, 64, 89, 72
65, 87, 83, 78
88, 77, 64, 73
74, 70, 77, 74
78, 75, 75, 86
78, 77, 68, 78
69, 71, 75, 78
68, 84, 82, 63
78, 79, 75, 81
86, 81, 87, 86
69, 93, 82, 96
73, 77, 64, 70
71, 88, 65, 83
73, 78, 77, 68
72, 81, 89, 82
75, 81, 75, 55
66, 61, 82, 71
78, 76, 82, 83
73, 68, 65, 63
88, 61, 73, 74
68, 82, 80, 82
87, 64, 70, 73
74, 71, 60, 85
65, 93, 72, 71
81, 67, 72, 84
65, 53, 69, 75
69, 76, 68, 78
84, 106, 86, 83
66, 77, 82, 67
70, 80, 72, 66
80, 72, 87, 57
72, 63, 79, 88
74, 77, 83, 63
80, 84, 85, 62
66, 82, 84, 80
75, 77, 78, 67
61, 84, 75, 70
77, 73, 72, 78
102, 75, 94, 74
79, 68, 93, 82
86, 67, 79, 77
67, 75, 72, 78
69, 77, 79, 64
75, 78, 73, 96
68, 69, 86, 58
69, 76, 78, 72
79, 93, 71, 76
76, 65, 84, 78
69, 81, 61, 68
81, 71, 68, 64
59, 76, 68, 69
77, 71, 57, 77
83, 72, 71, 64
76, 71, 66, 71
81, 78, 75, 72
78, 76, 89, 92
83, 67, 74, 83
82, 85, 63, 74
63, 56, 75, 76
86, 71, 76, 91
78, 82, 69, 68
60, 76, 65, 74
52, 66, 68, 87
73, 66, 81, 73
70, 71, 64, 70
78, 73, 79, 77
82, 84, 70, 69
61, 69, 65, 71
74, 72, 74, 70
69, 78, 75, 65
67, 82, 77, 89
71, 70, 87, 73
75, 66, 67, 77
74, 70, 87, 79
70, 70, 66, 70
74, 89, 79, 71
82, 72, 75, 60
66, 59, 75, 49
60, 67, 58, 54
86, 71, 67, 80
78, 69, 44, 60
74, 64, 56, 68
69, 73, 74, 78
66, 66, 69, 69
85, 73, 78, 65
67, 82, 83, 83
78, 75, 63, 64
65, 66, 73, 78
64, 82, 76, 71
80, 72, 71, 79
68, 77, 75, 76
71, 87, 65, 76
78, 80, 72, 69
77, 67, 75, 73
74, 69, 84, 65
66, 76, 65, 79
83, 74, 77, 64
67, 77, 56, 68
76, 56, 77, 67
74, 72, 60, 72
66, 76, 61, 75
65, 86, 63, 72
94, 65, 66, 68
83, 72, 58, 83
60, 86, 74, 61
73, 83, 77, 77
78, 71, 59, 81
83, 74, 68, 71
81, 69, 69, 64
73, 66, 70, 58
68, 58, 66, 71
75, 71, 63, 79
71, 72, 70, 65
76, 62, 61, 64
81, 76, 86, 69
90, 74, 70, 75
68, 66, 52, 79
65, 71, 71, 73
72, 74, 77, 76
80, 88, 83, 69
72, 75, 84, 69
81, 69, 74, 74
81, 74, 87, 94
63, 80, 79, 56
75, 69, 72, 70
75, 63, 80, 88
68, 79, 79, 67
56, 75, 72, 82
77, 85, 65, 66
84, 73, 54, 66
83, 78, 78, 65
72, 76, 77, 75
84, 72, 66, 78
86, 72, 77, 71
73, 67, 70, 85
83, 56, 73, 70
68, 66, 68, 78
76, 67, 79, 74
72, 77, 90, 74
74, 77, 67, 81
70, 60, 59, 73
73, 79, 74, 76
61, 93, 64, 60
76, 79, 68, 79
61, 73, 65, 80
64, 74, 74, 90
71, 80, 78, 54
65, 74, 73, 77
68, 86, 62, 88
77, 75, 69, 76
82, 67, 64, 91
77, 74, 61, 72
68, 66, 80, 92
73, 65, 78, 71
76, 72, 83, 67
72, 77, 87, 71
73, 72, 93, 84
73, 77, 78, 61
64, 69, 80, 82
76, 63, 61, 70
101, 72, 82, 69
73, 85, 92, 74
85, 80, 87, 86
82, 71, 72, 74
78, 69, 72, 66
74, 56, 69, 72
73, 91, 70, 102
82, 68, 73, 84
72, 62, 76, 80
85, 92, 92, 91
148, 148, 161, 146
221, 258, 245, 268
294, 294, 299, 295
235, 193, 173, 221
140, 143, 148, 121
92, 75, 77, 84
79, 89, 96, 102
101, 102, 87, 84
89, 75, 81, 79
75, 85, 71, 101
68, 88, 82, 92
80, 96, 80, 89
83, 66, 68, 81
67, 90, 85, 82
71, 73, 93, 86
59, 83, 82, 80
68, 75, 74, 91
89, 83, 86, 76
96, 83, 76, 81
94, 85, 78, 73
93, 71, 75, 80
85, 83, 92, 85
77, 106, 90, 87
76, 122, 118, 84
116, 105, 99, 121
158, 178, 157, 177
233, 288, 260, 278
287, 310, 293, 283
263, 275, 255, 223
245, 236, 205, 203
214, 199, 210, 202
197, 211, 203, 228
180, 215, 190, 198
179, 186, 180, 194
151, 126, 146, 145
133, 126, 126, 106
90, 102, 100, 104
102, 79, 76, 86
73, 92, 65, 69
91, 81, 75, 65
90, 68, 61, 70
85, 88, 85, 88
76, 79, 75, 83
88, 84, 60, 67
79, 67, 75, 82
70, 66, 73, 78
66, 65, 67, 83
60, 74, 83, 79
66, 76, 75, 83
84, 68, 83, 74
67, 77, 72, 70
85, 76, 98, 91
67, 84, 76, 58
68, 64, 64, 82
64, 76, 80, 83
81, 77, 68, 66
68, 70, 77, 63
86, 61, 72, 85
84, 78, 73, 69
57, 69, 80, 73
93, 74, 87, 80
58, 77, 78, 65
77, 74, 62, 81
82, 78, 74, 74
67, 62, 65, 68
66, 79, 81, 76
77, 97, 77, 90
85, 70, 76, 91
84, 82, 89, 65
73, 65, 69, 73
65, 79, 76, 75
78, 69, 80, 71
78, 86, 78, 74
78, 78, 92, 82
79, 65, 67, 58
68, 89, 79, 79
84, 62, 65, 74
75, 65, 71, 75
85, 75, 71, 77
61, 57, 76, 81
75, 67, 76, 83
81, 75, 76, 75
69, 74, 82, 66
81, 73, 78, 65
78, 68, 68, 64
61, 81, 74, 61
68, 71, 81, 54
64, 71, 80, 76
56, 67, 96, 66
84, 83, 75, 73
76, 79, 69, 76
83, 78, 78, 81
86, 70, 56, 76
88, 87, 85, 75
66, 78, 65, 79
77, 64, 70, 78
97, 77, 77, 62
87, 76, 87, 66
73, 84, 64, 68
66, 68, 75, 74
65, 67, 81, 74
80, 73, 79, 61
77, 61, 67, 81
87, 70, 68, 85
65, 69, 86, 84
68, 65, 89, 69
82, 75, 69, 75
65, 73, 74, 83
86, 87, 70, 57
71, 77, 67, 79
82, 79, 74, 83
63, 67, 86, 90
72, 87, 83, 69
63, 69, 81, 70
90, 76, 85, 83
78, 84, 75, 76
85, 74, 73, 85
80, 70, 77, 85
77, 85, 74, 67
93, 65, 88, 64
69, 73, 72, 81
67, 68, 75, 80
72, 73, 79, 60
77, 83, 82, 67
55, 79, 81, 81
66, 66, 75, 77
68, 77, 68, 59
74, 74, 66, 69
83, 69, 80, 80
64, 86, 67, 89
74, 67, 77, 80
60, 81, 72, 74
75, 64, 84, 85
87, 69, 74, 84
64, 64, 76, 82
65, 82, 72, 85
68, 85, 92, 66
85, 78, 72, 69
82, 83, 89, 80
59, 70, 87, 77
77, 76, 82, 77
70, 74, 72, 76
70, 84, 81, 74
94, 76, 61, 75
77, 83, 75, 59
66, 72, 65, 69
73, 72, 70, 78
87, 85, 82, 74
69, 70, 82, 88
70, 75, 83, 96
76, 77, 76, 73
79, 85, 82, 63
72, 79, 77, 63
66, 72, 82, 94
70, 77, 74, 66
75, 89, 63, 82
76, 76, 61, 74
68, 67, 69, 75
73, 76, 78, 67
84, 98, 86, 78
67, 74, 79, 82
76, 97, 69, 71
53, 75, 80, 66
70, 69, 92, 77
73, 51, 83, 85
77, 79, 64, 74
75, 71, 84, 92
79, 88, 71, 74
86, 68, 73, 68
65, 102, 86, 76
83, 89, 68, 85
72, 63, 61, 82
77, 68, 76, 67
90, 93, 90, 71
66, 58, 82, 82
61, 81, 73, 82
68, 63, 76, 71
63, 100, 77, 83
84, 72, 68, 77
61, 75, 69, 77
66, 71, 90, 73
71, 90, 75, 67
76, 68, 76, 77
78, 67, 68, 85
79, 81, 76, 78
81, 62, 61, 62
68, 75, 53, 92
77, 75, 71, 84
74, 93, 88, 72
79, 77, 85, 79
80, 87, 83, 81
81, 71, 79, 62
67, 61, 69, 85
70, 75, 71, 70
60, 66, 78, 77
79, 80, 85, 74
71, 67, 61, 83
73, 76, 93, 88
83, 73, 71, 82
73, 75, 74, 69
79, 82, 72, 71
74, 67, 79, 67
79, 84, 64, 81
61, 86, 77, 68
70, 72, 64, 72
87, 84, 61, 82
66, 59, 72, 83
72, 80, 91, 74
67, 76, 67, 73
66, 53, 61, 72
70, 97, 69, 82
81, 88, 79, 72
76, 69, 66, 71
98, 80, 77, 73
81, 93, 79, 91
78, 84, 63, 62
86, 60, 75, 68
73, 71, 71, 80
71, 56, 83, 74
77, 65, 62, 71
90, 74, 67, 63
98, 70, 71, 80
78, 77, 78, 71
82, 74, 69, 68
91, 62, 77, 86
62, 66, 78, 86
71, 62, 67, 91
66, 71, 78, 90
78, 103, 75, 78
74, 74, 76, 62
75, 61, 86, 85
78, 92, 78, 81
83, 64, 90, 86
84, 65, 75, 74
69, 78, 84, 81
81, 62, 83, 76
68, 85, 66, 88
77, 72, 84, 79
70, 87, 80, 78
89, 82, 76, 82
80, 77, 71, 75
68, 72, 67, 83
71, 70, 80, 96
81, 70, 77, 64
81, 71, 68, 96
83, 79, 90, 80
70, 82, 77, 77
77, 83, 57, 75
78, 69, 69, 71
77, 78, 81, 82
89, 85, 78, 68
78, 65, 78, 70
58, 71, 77, 56
67, 70, 74, 75
79, 80, 72, 75
91, 90, 85, 74
88, 86, 80, 81
88, 82, 78, 71
75, 88, 72, 86
72, 68, 77, 82
73, 56, 74, 64
93, 87, 82, 79
86, 72, 90, 72
82, 77, 70, 80
83, 93, 82, 65
87, 85, 76, 77
61, 76, 80, 69
68, 85, 76, 68
84, 89, 68, 82
79, 68, 66, 80
87, 69, 78, 74
76, 66, 71, 64
81, 70, 84, 77
76, 84, 71, 69
81, 78, 73, 80
64, 71, 79, 64
88, 73, 67, 75
73, 85, 82, 77
83, 73, 67, 95
89, 94, 80, 72
67, 78, 96, 74
88, 81, 78, 93
92, 94, 87, 65
83, 80, 85, 84
90, 95, 92, 98
92, 91, 85, 97
90, 89, 86, 89
103, 86, 88, 88
82, 98, 89, 82
80, 83, 80, 78
71, 77, 77, 84
77, 66, 78, 93
78, 73, 86, 79
97, 83, 69, 81
72, 76, 61, 75
102, 73, 61, 80
76, 86, 80, 63
65, 91, 72, 78
91, 87, 77, 84
79, 79, 84, 80
78, 68, 78, 85
79, 75, 87, 83
75, 84, 72, 93
86, 71, 77, 87
74, 68, 84, 84
79, 83, 68, 60
77, 90, 71, 77
69, 91, 79, 80
94, 68, 85, 81
80, 81, 76, 88
75, 79, 74, 71
84, 76, 88, 85
75, 79, 84, 80
74, 102, 77, 83
72, 72, 66, 78
76, 70, 94, 78
78, 104, 81, 61
81, 85, 80, 88
78, 73, 75, 91
72, 94, 76, 64
76, 73, 81, 100
73, 71, 88, 82
70, 77, 79, 73
73, 75, 78, 68
83, 82, 73, 70
80, 82, 79, 72
78, 81, 84, 72
79, 64, 87, 89
74, 70, 72, 63
83, 80, 75, 82
66, 96, 82, 63
75, 73, 70, 81
78, 82, 76, 80
78, 81, 78, 85
73, 64, 74, 63
74, 69, 97, 77
94, 78, 83, 64
82, 77, 79, 70
84, 86, 69, 76
63, 72, 66, 80
98, 75, 63, 87
82, 90, 83, 80
80, 80, 66, 67
94, 58, 75, 69
63, 96, 69, 77
78, 71, 77, 93
70, 61, 75, 107
67, 81, 81, 80
83, 83, 82, 69
71, 71, 78, 72
63, 65, 79, 73
95, 75, 78, 84
95, 89, 75, 83
93, 79, 81, 75
82, 78, 73, 78
75, 70, 95, 74
76, 82, 86, 68
71, 103, 86, 82
64, 61, 63, 87
86, 83, 95, 79
76, 87, 76, 84
76, 66, 75, 88
71, 86, 65, 77
82, 91, 77, 77
86, 101, 75, 93
93, 89, 65, 100
80, 76, 83, 71
70, 72, 84, 61
79, 88, 78, 90
71, 89, 68, 81
82, 73, 72, 101
96, 88, 80, 83
72, 85, 75, 93
81, 89, 80, 60
67, 91, 65, 88
76, 69, 75, 79
95, 74, 85, 66
95, 68, 73, 93
88, 81, 76, 80
75, 90, 74, 82
70, 92, 92, 80
87, 71, 86, 91
73, 72, 86, 85
84, 80, 77, 85
86, 84, 74, 85
84, 87, 78, 73
90, 86, 80, 80
92, 69, 75, 74
66, 86, 85, 67
73, 73, 82, 70
68, 81, 92, 100
86, 107, 92, 86
73, 90, 86, 71
76, 87, 80, 87
88, 85, 91, 77
72, 84, 72, 91
91, 76, 71, 70
85, 65, 89, 94
78, 81, 87, 68
75, 79, 82, 76
89, 92, 86, 86
88, 93, 85, 82
81, 96, 83, 68
84, 82, 93, 90
69, 63, 77, 91
78, 65, 75, 88
77, 82, 80, 94
75, 93, 77, 78
101, 76, 65, 93
83, 88, 87, 77
78, 75, 81, 72
86, 82, 76, 91
72, 80, 93, 67
79, 87, 94, 89
81, 89, 74, 84
73, 84, 90, 90
95, 87, 101, 102
101, 99, 97, 91
115, 115, 91, 100
102, 109, 93, 104
100, 132, 111, 109
99, 103, 107, 104
103, 100, 103, 91
96, 108, 91, 77
87, 77, 88, 104
101, 93, 83, 90
79, 97, 79, 94
67, 88, 82, 74
84, 86, 88, 91
78, 93, 75, 73
80, 81, 64, 76
82, 77, 92, 80
95, 76, 84, 66
84, 79, 83, 84
82, 109, 78, 73
59, 84, 76, 86
80, 84, 69, 87
84, 85, 78, 94
74, 83, 72, 78
95, 102, 100, 87
88, 94, 84, 91
99, 70, 89, 76
101, 87, 77, 91
84, 87, 88, 95
97, 91, 73, 76
95, 79, 78, 75
84, 97, 93, 73
91, 74, 95, 97
78, 82, 84, 85
92, 80, 82, 84
84, 84, 79, 81
73, 76, 79, 76
83, 67, 92, 84
84, 74, 81, 93
74, 76, 90, 74
81, 86, 82, 67
88, 89, 95, 80
92, 79, 80, 91
75, 67, 87, 83
76, 89, 93, 79
91, 108, 100, 82
84, 89, 88, 76
87, 78, 75, 71
77, 83, 76, 99
86, 97, 82, 86
80, 82, 85, 91
93, 76, 85, 86
85, 75, 91, 76
75, 91, 81, 76
80, 93, 76, 85
93, 70, 80, 108
90, 83, 81, 83
88, 73, 81, 88
79, 69, 78, 83
75, 87, 85, 89
85, 76, 72, 67
88, 74, 92, 86
95, 93, 86, 82
74
*END

*EOF