File: XRD-20251211/1-5_2-Theta_Omega.asc
*TYPE		=  Raw
*CLASS		=  ASCII CLASS
*SAMPLE		=
*COMMENT	=
*FNAME		=  1-5_2-Theta_Omega.asc
*DATE		=  11-Dec-25 15:27

*GROUP_COUNT	=  1
*GONIO		=  SmartLab(In-plane), 0.000000
*ATTACHMENT	=  Z-Phi Stage
*ASC		=  0, 0, 0.000000, 0.000000
*I_MONOCHRO	=  Soller_slit_5.0deg, 0.000000
*FILTER		=  None
*C_MONOCHRO	=  None, 0.000000
*SLIT_NAME	=  0, Incident slit
*SLIT_NAME	=  1, Receiving slit # 1
*SLIT_NAME	=  2, Receiving slit # 2
*COUNTER	=  SC-70, 0
*POS_FORMAT	=  0
*SCAN_AXIS	=  2Theta/Omega
*MEAS_MODE	=  Continuous Scanning
*TARGET		=  29
*XRAY_CHAR	=  K-ALPHA
*WAVE_LENGTH1	=  1.54059
*WAVE_LENGTH2	=  1.54441
*THICKNESS	=  0, 0.000000
*MU		=  0, 0.000000
*SCAN_MODE	=  2Theta/Omega
*SPEED_DIM	=  sec./step
*XUNIT		=  deg.
*YUNIT		=  counts
*SCALE_MODE	=  1
*REP_COUNT	=  0
*SE_COUNT	=  0
*STD_MATERIAL	=  Unknown, Unknown, 0.000000, 0.000000, 0.000000, 0.000000, 0.000000, 0.000000
*LATT_CONS	=  0, Unknown, Unknown, 0.000000, 0.000000, 0.000000, 0.000000, 0.000000, 0.000000
*SEC_COUNT	=  1
*TSPEC_SIZE	=  0
*EXTRA_SIZE	=  0
*MEMO		=

*BEGIN
*GROUP		=  0
*START		=  20
*STOP		=  80
*STEP		=  0.01
*OFFSET		=  0.000000
*SPEED		=  0.05
*SLIT_SPEC	=  0, 1.000mm, 1, 0.000000
*SLIT_SPEC	=  1, 1.000mm, 1, 0.000000
*SLIT_SPEC	=  2, 1.000mm, 1, 0.000000
*KV		=  40
*MA		=  100
*LOW		=  0.000000
*HIGH		=  0.000000
*CTEMPER	=  0, 0.000000
*CTEMPER	=  1, 0.000000
*CTEMPER	=  2, 0.000000
*PAREX		=  0, 0.000000
*PAREX		=  1, 0.000000
*PAREX		=  2, 0.000000
*PAREX		=  3, 0.000000
*PAREX		=  4, 0.000000
*PAREX		=  5, 0.000000
*PAREX		=  6, 0.000000
*PAREX		=  7, 0.000000
*PAREX		=  8, 0.000000
*PAREX		=  9, 0.000000
*PAREX		=  10, 0.000000
*PAREX		=  11, 0.000000
*PAREX		=  12, 0.000000
*PAREX		=  13, 0.000000
*PAREX		=  14, 0.000000
*PAREX		=  15, 0.000000
*FULL_SCALE	=  5880
*INDEX		=  0, 0, 0
*COUNT		=  6001
92, 70, 83, 57
58, 70, 86, 84
92, 73, 66, 72
86, 90, 83, 98
98, 73, 64, 80
79, 77, 81, 92
85, 71, 88, 70
78, 86, 87, 75
85, 72, 77, 96
71, 87, 81, 90
82, 85, 96, 92
89, 79, 92, 78
83, 70, 85, 90
76, 73, 100, 68
75, 74, 74, 83
92, 68, 93, 73
88, 89, 82, 74
69, 77, 86, 85
58, 117, 82, 82
70, 86, 65, 71
77, 76, 74, 73
74, 72, 70, 78
74, 85, 64, 69
65, 84, 94, 92
81, 75, 75, 89
75, 84, 73, 77
73, 76, 79, 93
80, 83, 80, 82
75, 85, 88, 84
93, 56, 92, 84
76, 80, 101, 89
88, 60, 92, 88
76, 96, 79, 79
78, 77, 100, 93
89, 91, 73, 77
77, 95, 77, 92
57, 72, 76, 74
77, 73, 76, 101
90, 75, 67, 87
77, 70, 70, 97
86, 87, 95, 101
94, 73, 82, 82
70, 76, 90, 84
89, 72, 79, 81
92, 67, 86, 87
88, 76, 86, 81
87, 94, 90, 81
69, 101, 80, 88
84, 68, 91, 75
88, 95, 88, 64
57, 75, 88, 89
80, 80, 67, 74
71, 73, 75, 78
88, 83, 97, 80
60, 77, 79, 93
73, 74, 81, 87
77, 61, 78, 77
88, 83, 73, 75
66, 74, 91, 83
84, 80, 78, 92
82, 68, 74, 65
84, 82, 67, 86
66, 77, 104, 94
86, 85, 71, 86
91, 69, 85, 75
70, 77, 75, 69
70, 108, 89, 99
75, 78, 71, 91
77, 88, 72, 79
91, 74, 58, 67
77, 83, 73, 79
85, 73, 66, 77
82, 70, 75, 105
94, 67, 88, 81
98, 96, 81, 79
76, 71, 102, 80
90, 84, 86, 65
63, 86, 92, 93
68, 76, 66, 67
79, 77, 81, 88
88, 88, 69, 81
82, 75, 84, 91
79, 76, 73, 99
83, 83, 64, 89
104, 64, 90, 88
82, 90, 70, 67
78, 78, 79, 85
77, 74, 82, 84
75, 72, 73, 89
79, 83, 85, 87
71, 86, 65, 92
84, 89, 93, 82
67, 98, 91, 84
67, 63, 75, 63
78, 85, 67, 82
77, 91, 76, 86
76, 74, 90, 80
62, 70, 58, 74
83, 92, 86, 81
78, 78, 92, 89
82, 82, 83, 87
60, 77, 85, 86
83, 71, 75, 69
75, 72, 86, 73
83, 72, 62, 66
79, 82, 64, 72
92, 72, 79, 73
68, 76, 66, 77
84, 85, 82, 74
88, 93, 77, 80
76, 84, 76, 80
79, 65, 75, 72
84, 72, 87, 75
78, 73, 62, 79
85, 73, 83, 79
76, 80, 83, 72
78, 100, 78, 61
89, 75, 84, 87
91, 88, 70, 78
70, 61, 69, 93
66, 79, 79, 67
72, 85, 81, 89
84, 79, 69, 85
63, 83, 77, 78
86, 69, 71, 82
66, 75, 86, 85
80, 83, 80, 63
75, 92, 60, 77
88, 88, 74, 80
72, 63, 91, 78
69, 89, 75, 77
75, 91, 73, 72
79, 63, 73, 67
86, 76, 76, 70
79, 77, 96, 85
69, 74, 73, 83
69, 83, 68, 79
78, 88, 86, 86
97, 76, 78, 75
77, 88, 95, 76
89, 92, 65, 73
87, 80, 74, 87
73, 79, 82, 84
76, 71, 79, 81
88, 74, 78, 85
81, 78, 81, 91
66, 68, 88, 74
72, 83, 66, 67
75, 75, 60, 73
70, 84, 80, 71
78, 87, 83, 98
83, 91, 88, 61
78, 96, 71, 71
88, 63, 79, 74
73, 73, 74, 87
72, 99, 65, 74
69, 63, 78, 84
75, 69, 80, 68
71, 73, 71, 69
83, 94, 77, 72
77, 90, 77, 70
81, 71, 85, 64
67, 71, 78, 72
72, 62, 99, 84
80, 93, 66, 75
81, 63, 81, 61
87, 89, 85, 82
86, 75, 78, 75
64, 72, 77, 88
76, 76, 84, 63
90, 68, 83, 86
77, 73, 84, 75
65, 93, 90, 70
63, 64, 96, 98
80, 75, 68, 72
72, 81, 72, 77
86, 68, 96, 80
68, 87, 88, 66
81, 74, 90, 62
91, 80, 73, 66
81, 86, 72, 86
82, 83, 73, 97
51, 72, 66, 74
84, 55, 73, 57
68, 79, 98, 68
77, 91, 82, 87
73, 82, 80, 85
78, 87, 68, 85
71, 83, 67, 79
69, 63, 74, 73
75, 72, 81, 77
71, 69, 87, 72
76, 82, 80, 71
75, 80, 78, 65
75, 96, 91, 74
87, 74, 85, 82
67, 65, 64, 76
64, 68, 79, 92
92, 65, 85, 78
70, 80, 60, 79
66, 82, 77, 71
91, 91, 71, 87
83, 86, 83, 79
81, 76, 84, 79
70, 81, 76, 73
79, 95, 76, 86
82, 62, 81, 81
80, 96, 84, 78
69, 87, 80, 67
76, 96, 85, 81
79, 77, 91, 87
82, 86, 73, 92
70, 66, 78, 97
67, 87, 61, 76
62, 78, 84, 82
60, 74, 82, 81
74, 78, 70, 66
62, 61, 82, 89
84, 73, 81, 84
85, 84, 85, 89
66, 71, 70, 73
80, 77, 87, 70
81, 64, 73, 98
90, 74, 75, 96
77, 80, 66, 60
69, 79, 72, 80
72, 84, 85, 90
94, 62, 72, 78
78, 68, 83, 76
86, 66, 90, 81
80, 98, 86, 79
80, 85, 79, 88
68, 93, 70, 80
77, 91, 69, 72
92, 89, 78, 66
72, 76, 64, 87
77, 84, 91, 66
82, 89, 85, 80
80, 76, 67, 83
75, 90, 64, 81
76, 90, 82, 80
83, 75, 84, 82
92, 56, 72, 73
83, 77, 65, 90
83, 79, 70, 79
90, 88, 85, 84
79, 86, 83, 72
92, 67, 64, 80
91, 65, 79, 81
78, 95, 86, 85
75, 77, 73, 83
86, 75, 87, 86
86, 81, 85, 71
91, 73, 74, 65
79, 87, 77, 75
90, 92, 74, 60
77, 84, 75, 92
85, 81, 78, 79
84, 80, 69, 75
65, 85, 76, 94
89, 71, 87, 70
78, 83, 73, 86
70, 74, 72, 88
69, 75, 98, 78
73, 76, 72, 94
75, 90, 83, 88
75, 93, 92, 86
73, 77, 83, 80
68, 78, 74, 102
83, 88, 96, 87
77, 81, 79, 73
84, 83, 83, 76
89, 73, 69, 88
90, 86, 79, 77
104, 86, 87, 81
86, 78, 96, 87
81, 91, 84, 83
83, 75, 79, 85
90, 93, 83, 84
73, 75, 88, 78
83, 85, 91, 73
67, 91, 92, 82
85, 83, 82, 77
88, 88, 90, 67
79, 83, 81, 78
85, 77, 81, 94
94, 90, 72, 83
91, 89, 78, 81
82, 88, 102, 104
78, 82, 96, 86
84, 88, 95, 95
90, 78, 63, 87
89, 84, 79, 86
93, 95, 88, 93
88, 101, 81, 99
104, 98, 105, 98
122, 149, 137, 155
171, 161, 171, 210
225, 229, 208, 212
188, 199, 182, 210
199, 185, 178, 199
180, 183, 181, 195
190, 192, 201, 204
212, 225, 221, 221
245, 235, 214, 230
229, 182, 192, 203
167, 165, 151, 151
122, 110, 120, 108
103, 86, 109, 99
90, 80, 87, 82
90, 97, 73, 91
87, 90, 88, 77
77, 86, 78, 93
81, 87, 70, 94
97, 76, 78, 86
104, 83, 79, 89
81, 84, 83, 96
83, 73, 88, 99
94, 91, 91, 91
88, 83, 72, 92
86, 90, 75, 81
80, 92, 76, 71
86, 80, 91, 68
91, 76, 94, 92
80, 75, 78, 96
78, 88, 75, 70
74, 84, 85, 93
74, 73, 86, 89
89, 101, 63, 71
77, 76, 89, 81
83, 86, 79, 77
90, 78, 108, 90
68, 72, 77, 96
89, 70, 94, 89
74, 75, 85, 101
95, 93, 79, 91
90, 67, 81, 83
86, 71, 82, 67
90, 93, 64, 76
85, 84, 91, 87
92, 87, 68, 77
84, 77, 79, 78
75, 86, 79, 91
76, 77, 74, 81
97, 78, 69, 86
90, 80, 102, 73
88, 59, 72, 79
79, 83, 75, 84
55, 94, 74, 72
77, 77, 75, 69
78, 106, 75, 84
73, 91, 86, 83
80, 92, 60, 79
82, 84, 83, 76
73, 88, 92, 83
69, 90, 61, 64
77, 84, 83, 76
92, 96, 85, 82
100, 86, 75, 89
79, 82, 87, 96
80, 82, 55, 72
64, 81, 88, 69
86, 86, 74, 81
90, 80, 76, 90
67, 89, 88, 75
68, 78, 78, 89
93, 77, 60, 75
60, 68, 78, 77
74, 77, 88, 83
70, 81, 71, 81
88, 87, 72, 91
66, 82, 69, 81
95, 93, 88, 88
80, 88, 86, 75
80, 63, 79, 79
72, 82, 72, 78
63, 72, 88, 82
69, 71, 79, 75
76, 73, 94, 63
105, 96, 70, 76
81, 76, 80, 89
97, 72, 67, 61
66, 80, 60, 76
78, 83, 75, 86
69, 85, 84, 96
91, 60, 74, 83
90, 87, 81, 92
80, 81, 86, 88
66, 91, 66, 87
83, 99, 67, 62
101, 82, 77, 75
79, 92, 81, 78
65, 94, 82, 86
91, 71, 87, 83
63, 82, 90, 79
92, 89, 85, 90
77, 79, 87, 78
80, 79, 66, 80
77, 96, 76, 76
76, 71, 71, 70
82, 80, 79, 82
69, 82, 76, 99
79, 84, 87, 83
71, 81, 77, 76
89, 69, 81, 73
72, 91, 90, 75
81, 76, 83, 73
66, 96, 82, 79
69, 92, 77, 81
87, 71, 75, 76
80, 81, 77, 83
80, 78, 77, 65
87, 87, 78, 87
94, 97, 78, 75
81, 75, 80, 84
108, 86, 83, 81
79, 77, 70, 73
89, 110, 73, 80
75, 88, 77, 80
82, 86, 91, 80
85, 78, 80, 83
84, 80, 88, 62
98, 76, 88, 81
89, 79, 86, 81
72, 76, 61, 85
94, 89, 87, 75
75, 70, 68, 84
80, 88, 76, 73
96, 74, 79, 82
74, 81, 65, 76
83, 82, 70, 68
83, 86, 75, 83
78, 68, 90, 96
75, 82, 82, 90
87, 63, 59, 87
76, 64, 87, 81
84, 79, 82, 71
74, 76, 68, 87
72, 80, 86, 80
67, 78, 68, 83
77, 72, 77, 78
85, 64, 83, 77
87, 75, 97, 70
82, 62, 82, 80
87, 68, 90, 86
70, 81, 91, 73
74, 88, 73, 76
97, 79, 81, 97
90, 83, 85, 102
84, 84, 83, 72
82, 96, 83, 63
86, 71, 72, 79
91, 64, 74, 80
76, 77, 67, 93
93, 83, 80, 96
81, 83, 84, 74
78, 77, 81, 78
90, 77, 90, 81
75, 91, 83, 98
67, 72, 88, 62
81, 88, 74, 102
76, 85, 90, 70
78, 83, 87, 82
71, 85, 87, 79
76, 74, 73, 80
90, 89, 95, 88
82, 81, 89, 77
76, 76, 63, 85
80, 76, 90, 88
77, 87, 91, 71
90, 86, 83, 85
69, 76, 71, 79
74, 102, 67, 80
89, 109, 85, 74
88, 78, 91, 81
95, 80, 95, 86
82, 81, 73, 78
78, 91, 74, 84
78, 82, 76, 80
68, 104, 84, 75
99, 92, 101, 79
92, 100, 77, 74
79, 79, 84, 79
86, 82, 77, 79
83, 82, 91, 78
95, 84, 93, 83
69, 88, 93, 69
87, 94, 70, 98
77, 75, 72, 87
76, 66, 80, 97
83, 89, 71, 93
76, 83, 68, 91
73, 84, 78, 100
90, 70, 85, 79
81, 72, 84, 77
75, 62, 102, 82
96, 78, 74, 84
85, 86, 85, 66
84, 79, 67, 83
90, 62, 82, 85
69, 81, 70, 65
87, 91, 75, 83
90, 75, 76, 83
96, 75, 85, 96
95, 75, 92, 81
88, 69, 67, 92
89, 84, 80, 88
70, 102, 80, 64
87, 81, 74, 101
63, 77, 95, 83
74, 81, 90, 98
91, 75, 93, 68
78, 87, 80, 77
95, 91, 92, 95
95, 85, 87, 74
78, 89, 101, 82
80, 84, 81, 72
104, 78, 91, 83
104, 97, 108, 81
74, 76, 82, 92
84, 79, 86, 95
83, 81, 96, 78
76, 79, 80, 76
97, 78, 72, 90
84, 77, 63, 80
86, 87, 83, 74
101, 80, 91, 96
78, 78, 76, 82
80, 86, 69, 111
72, 70, 71, 87
95, 75, 79, 87
73, 72, 90, 97
74, 86, 97, 91
93, 81, 90, 94
74, 90, 85, 70
95, 78, 79, 79
103, 92, 88, 84
81, 78, 77, 85
69, 96, 92, 75
93, 78, 77, 74
70, 86, 90, 77
81, 91, 85, 101
70, 101, 75, 89
85, 79, 73, 83
87, 83, 86, 72
85, 88, 100, 82
84, 79, 63, 83
76, 81, 81, 83
86, 80, 71, 83
78, 88, 75, 81
95, 65, 95, 81
80, 89, 98, 97
77, 84, 80, 94
89, 106, 90, 81
88, 81, 93, 98
96, 106, 99, 83
95, 81, 82, 93
96, 84, 91, 97
108, 93, 95, 117
105, 92, 89, 100
103, 90, 83, 92
90, 93, 88, 83
87, 100, 85, 72
84, 82, 95, 65
85, 85, 83, 77
78, 91, 88, 85
94, 84, 88, 100
99, 79, 81, 100
81, 86, 69, 97
83, 92, 81, 86
98, 84, 87, 72
77, 94, 79, 72
85, 90, 81, 80
82, 70, 70, 80
79, 84, 75, 79
85, 90, 81, 97
92, 105, 90, 93
81, 98, 92, 98
94, 86, 82, 80
85, 72, 89, 103
92, 85, 80, 82
95, 90, 75, 94
75, 79, 85, 76
81, 84, 76, 86
77, 83, 96, 95
85, 87, 93, 79
71, 85, 70, 72
103, 88, 84, 75
93, 92, 89, 90
87, 76, 85, 76
73, 77, 103, 73
77, 75, 88, 87
79, 86, 88, 84
88, 100, 93, 91
76, 79, 88, 78
85, 90, 85, 82
73, 80, 94, 81
69, 73, 80, 89
81, 89, 70, 77
78, 98, 87, 90
73, 96, 97, 84
84, 83, 88, 71
85, 74, 84, 94
77, 73, 79, 91
79, 102, 81, 92
93, 96, 84, 68
99, 85, 88, 73
81, 80, 79, 91
86, 103, 91, 84
91, 87, 90, 84
81, 98, 87, 89
71, 91, 81, 84
73, 77, 94, 91
95, 77, 90, 92
83, 91, 87, 77
96, 76, 94, 87
78, 87, 79, 86
79, 96, 76, 93
89, 96, 82, 79
88, 76, 92, 76
82, 69, 83, 78
83, 86, 83, 81
107, 95, 76, 87
91, 73, 80, 79
87, 82, 80, 93
85, 73, 81, 85
96, 78, 97, 87
84, 73, 91, 90
85, 81, 86, 81
86, 90, 89, 89
99, 92, 83, 84
94, 74, 70, 108
88, 90, 86, 87
89, 93, 83, 76
102, 98, 88, 65
85, 67, 76, 91
94, 99, 88, 92
81, 82, 91, 85
84, 87, 74, 71
74, 93, 78, 82
86, 88, 102, 86
92, 93, 99, 86
89, 93, 87, 68
90, 66, 100, 90
99, 95, 88, 73
90, 90, 88, 101
85, 93, 77, 81
98, 92, 94, 66
81, 84, 75, 93
88, 101, 79, 92
96, 92, 79, 84
91, 86, 87, 89
97, 97, 84, 85
78, 98, 92, 89
91, 90, 77, 83
80, 88, 75, 92
70, 86, 74, 89
95, 67, 82, 85
89, 99, 86, 90
95, 88, 87, 97
100, 88, 97, 96
90, 105, 90, 82
86, 98, 100, 96
95, 71, 79, 101
84, 82, 75, 82
87, 92, 87, 91
92, 71, 87, 88
83, 91, 84, 94
70, 102, 94, 91
99, 91, 89, 89
91, 89, 93, 79
84, 90, 78, 69
85, 85, 89, 102
79, 85, 88, 81
87, 91, 96, 85
91, 86, 93, 86
102, 81, 68, 99
108, 81, 87, 88
84, 100, 79, 97
94, 88, 90, 113
86, 71, 106, 94
92, 81, 104, 109
97, 92, 85, 82
98, 97, 92, 95
100, 81, 89, 83
92, 100, 79, 96
86, 80, 98, 86
73, 114, 102, 99
84, 82, 91, 110
95, 96, 80, 91
94, 99, 111, 96
98, 120, 96, 101
94, 100, 100, 99
98, 88, 89, 97
104, 104, 96, 97
80, 106, 97, 103
99, 103, 99, 83
95, 90, 102, 94
78, 75, 100, 112
73, 90, 87, 88
93, 88, 82, 80
91, 67, 77, 94
89, 88, 86, 94
86, 78, 95, 90
76, 100, 84, 103
107, 82, 92, 100
81, 88, 88, 90
80, 82, 81, 92
81, 87, 93, 79
75, 90, 92, 71
79, 89, 95, 81
90, 102, 100, 84
99, 97, 81, 79
90, 90, 97, 82
92, 89, 81, 100
98, 78, 91, 81
85, 103, 82, 90
102, 86, 84, 90
97, 101, 75, 96
106, 95, 97, 82
91, 74, 83, 88
89, 88, 76, 86
103, 97, 100, 87
79, 95, 95, 92
99, 73, 104, 77
86, 94, 87, 98
98, 89, 85, 91
93, 88, 95, 79
84, 91, 104, 83
88, 86, 88, 102
92, 103, 91, 95
84, 108, 114, 85
97, 98, 91, 88
82, 98, 81, 99
74, 92, 93, 92
88, 96, 112, 94
91, 94, 102, 95
79, 80, 91, 87
96, 77, 102, 90
94, 100, 106, 85
104, 82, 99, 84
75, 88, 109, 91
89, 76, 80, 93
91, 98, 81, 93
98, 100, 91, 103
78, 70, 89, 98
94, 84, 92, 85
101, 99, 88, 86
98, 82, 93, 97
81, 101, 91, 103
84
*END

*EOF