File: XRD-20251211/1-6_2-Theta_Omega.asc
*TYPE		=  Raw
*CLASS		=  ASCII CLASS
*SAMPLE		=
*COMMENT	=
*FNAME		=  1-6_2-Theta_Omega.asc
*DATE		=  11-Dec-25 15:35

*GROUP_COUNT	=  1
*GONIO		=  SmartLab(In-plane), 0.000000
*ATTACHMENT	=  Z-Phi Stage
*ASC		=  0, 0, 0.000000, 0.000000
*I_MONOCHRO	=  Soller_slit_5.0deg, 0.000000
*FILTER		=  None
*C_MONOCHRO	=  None, 0.000000
*SLIT_NAME	=  0, Incident slit
*SLIT_NAME	=  1, Receiving slit # 1
*SLIT_NAME	=  2, Receiving slit # 2
*COUNTER	=  SC-70, 0
*POS_FORMAT	=  0
*SCAN_AXIS	=  2Theta/Omega
*MEAS_MODE	=  Continuous Scanning
*TARGET		=  29
*XRAY_CHAR	=  K-ALPHA
*WAVE_LENGTH1	=  1.54059
*WAVE_LENGTH2	=  1.54441
*THICKNESS	=  0, 0.000000
*MU		=  0, 0.000000
*SCAN_MODE	=  2Theta/Omega
*SPEED_DIM	=  sec./step
*XUNIT		=  deg.
*YUNIT		=  counts
*SCALE_MODE	=  1
*REP_COUNT	=  0
*SE_COUNT	=  0
*STD_MATERIAL	=  Unknown, Unknown, 0.000000, 0.000000, 0.000000, 0.000000, 0.000000, 0.000000
*LATT_CONS	=  0, Unknown, Unknown, 0.000000, 0.000000, 0.000000, 0.000000, 0.000000, 0.000000
*SEC_COUNT	=  1
*TSPEC_SIZE	=  0
*EXTRA_SIZE	=  0
*MEMO		=

*BEGIN
*GROUP		=  0
*START		=  20
*STOP		=  80
*STEP		=  0.01
*OFFSET		=  0.000000
*SPEED		=  0.05
*SLIT_SPEC	=  0, 1.000mm, 1, 0.000000
*SLIT_SPEC	=  1, 1.000mm, 1, 0.000000
*SLIT_SPEC	=  2, 1.000mm, 1, 0.000000
*KV		=  40
*MA		=  100
*LOW		=  0.000000
*HIGH		=  0.000000
*CTEMPER	=  0, 0.000000
*CTEMPER	=  1, 0.000000
*CTEMPER	=  2, 0.000000
*PAREX		=  0, 0.000000
*PAREX		=  1, 0.000000
*PAREX		=  2, 0.000000
*PAREX		=  3, 0.000000
*PAREX		=  4, 0.000000
*PAREX		=  5, 0.000000
*PAREX		=  6, 0.000000
*PAREX		=  7, 0.000000
*PAREX		=  8, 0.000000
*PAREX		=  9, 0.000000
*PAREX		=  10, 0.000000
*PAREX		=  11, 0.000000
*PAREX		=  12, 0.000000
*PAREX		=  13, 0.000000
*PAREX		=  14, 0.000000
*PAREX		=  15, 0.000000
*FULL_SCALE	=  1185694.6
*INDEX		=  0, 0, 0
*COUNT		=  6001
87, 96, 91, 94
86, 83, 82, 83
82, 90, 92, 87
81, 87, 82, 99
86, 87, 84, 80
78, 93, 103, 79
98, 105, 97, 87
105, 96, 99, 79
112, 115, 110, 116
94, 89, 103, 100
73, 87, 95, 99
94, 95, 94, 85
84, 97, 93, 95
97, 79, 118, 86
82, 78, 101, 82
98, 89, 84, 85
79, 93, 75, 83
95, 82, 96, 86
97, 84, 95, 92
90, 90, 68, 91
67, 88, 87, 89
105, 85, 79, 94
86, 86, 87, 94
89, 73, 83, 119
72, 96, 86, 83
65, 87, 84, 85
81, 91, 81, 93
88, 92, 84, 89
87, 98, 82, 90
94, 88, 72, 86
81, 97, 94, 96
84, 84, 81, 73
85, 86, 98, 104
96, 81, 88, 74
77, 94, 95, 99
82, 87, 91, 84
86, 76, 70, 85
91, 86, 86, 97
108, 78, 85, 97
89, 93, 95, 71
93, 70, 89, 88
88, 86, 92, 76
96, 85, 82, 92
84, 98, 92, 81
92, 94, 88, 80
107, 75, 68, 90
75, 89, 101, 80
93, 96, 73, 77
93, 72, 74, 92
87, 95, 84, 93
69, 90, 92, 78
85, 93, 99, 86
72, 93, 77, 94
94, 99, 90, 84
94, 76, 80, 85
108, 89, 74, 88
84, 95, 101, 78
85, 78, 85, 89
88, 78, 78, 90
94, 94, 106, 85
91, 97, 91, 81
101, 73, 86, 86
94, 73, 97, 92
95, 95, 99, 87
102, 93, 78, 92
78, 80, 74, 100
83, 102, 101, 97
94, 85, 89, 98
110, 95, 87, 74
83, 83, 97, 83
101, 86, 89, 101
85, 103, 79, 102
104, 101, 97, 116
105, 111, 111, 115
85, 106, 113, 92
101, 120, 110, 112
83, 114, 145, 114
100, 104, 121, 131
92, 109, 117, 143
128, 109, 125, 115
115, 123, 100, 112
116, 117, 113, 113
122, 101, 122, 124
97, 113, 128, 126
120, 111, 140, 87
99, 110, 97, 98
83, 111, 97, 85
108, 100, 90, 90
120, 72, 95, 102
95, 105, 98, 79
102, 98, 104, 113
87, 99, 87, 95
93, 75, 85, 108
97, 82, 93, 87
89, 96, 103, 95
107, 92, 91, 104
106, 102, 91, 109
91, 91, 94, 114
90, 86, 78, 92
87, 100, 91, 99
92, 101, 91, 106
83, 98, 90, 81
90, 75, 98, 89
99, 99, 100, 100
92, 96, 92, 80
90, 84, 95, 86
87, 86, 92, 97
99, 82, 93, 110
106, 83, 84, 95
79, 107, 73, 106
97, 91, 96, 89
102, 103, 97, 91
102, 106, 86, 104
90, 103, 87, 95
90, 102, 77, 98
83, 82, 96, 101
94, 83, 90, 88
91, 89, 100, 79
95, 84, 111, 104
83, 80, 94, 80
80, 104, 106, 95
89, 70, 81, 82
85, 79, 89, 84
86, 81, 80, 87
102, 101, 99, 88
92, 88, 89, 82
93, 111, 73, 91
97, 106, 93, 83
87, 103, 101, 103
94, 107, 99, 105
110, 82, 89, 86
88, 94, 92, 88
79, 100, 84, 96
83, 79, 88, 91
100, 96, 114, 102
100, 105, 95, 91
90, 69, 98, 92
92, 90, 99, 92
92, 95, 97, 98
101, 92, 95, 110
101, 101, 96, 96
100, 116, 88, 89
101, 90, 91, 94
95, 95, 95, 84
94, 86, 71, 80
98, 89, 93, 97
97, 70, 75, 93
82, 114, 106, 102
93, 92, 93, 108
97, 76, 77, 105
99, 97, 96, 84
104, 98, 93, 110
106, 99, 101, 88
95, 94, 105, 95
100, 100, 85, 98
87, 101, 99, 86
93, 79, 112, 81
100, 93, 116, 114
83, 107, 91, 89
102, 84, 91, 115
84, 80, 94, 106
82, 89, 105, 97
103, 110, 94, 95
98, 105, 102, 96
104, 89, 106, 104
99, 111, 111, 83
102, 98, 110, 103
101, 96, 102, 106
94, 96, 112, 89
100, 105, 108, 92
104, 98, 110, 110
92, 101, 96, 95
111, 108, 106, 110
115, 107, 109, 121
100, 124, 81, 131
111, 113, 144, 122
133, 110, 127, 105
142, 132, 134, 120
124, 116, 121, 103
141, 147, 139, 125
158, 126, 141, 145
180, 150, 189, 194
241, 230, 258, 269
320, 306, 323, 334
325, 334, 329, 331
300, 292, 315, 310
277, 296, 273, 273
303, 309, 296, 320
323, 324, 320, 322
320, 333, 349, 326
360, 377, 354, 343
402, 417, 436, 444
491, 536, 562, 556
767, 831, 867, 873
1080, 1201, 1276, 1278
1450, 1508, 1585, 1570
1670, 1630, 1629, 1625
1569, 1426, 1517, 1449
1354, 1303, 1318, 1261
1091, 1080, 1044, 1012
822, 784, 757, 768
570, 574, 527, 513
346, 346, 366, 320
305, 290, 256, 251
219, 203, 189, 196
172, 164, 155, 167
142, 131, 133, 144
122, 117, 130, 126
109, 116, 124, 116
97, 105, 111, 99
111, 97, 116, 97
96, 109, 98, 108
109, 104, 89, 101
94, 98, 88, 106
100, 92, 115, 101
98, 104, 98, 88
98, 111, 104, 113
117, 101, 112, 115
103, 93, 105, 116
118, 108, 109, 128
184, 231, 253, 287
317, 290, 260, 196
126, 110, 138, 128
120, 101, 114, 104
120, 119, 113, 103
106, 114, 102, 109
96, 100, 101, 105
85, 98, 102, 98
121, 106, 130, 97
93, 103, 115, 110
110, 89, 102, 109
107, 103, 86, 109
89, 113, 102, 104
97, 99, 113, 111
105, 120, 106, 124
89, 105, 94, 104
101, 106, 114, 107
102, 115, 120, 117
109, 95, 126, 110
120, 117, 103, 116
122, 106, 127, 121
114, 93, 96, 129
125, 118, 118, 124
114, 106, 122, 143
120, 129, 132, 129
145, 145, 151, 165
152, 175, 139, 145
170, 163, 159, 136
156, 147, 170, 188
234, 323, 320, 378
655, 649, 610, 584
285, 239, 229, 205
191, 159, 175, 150
169, 160, 181, 206
262, 269, 234, 257
162, 171, 182, 164
164, 170, 157, 166
198, 153, 166, 173
169, 195, 181, 169
184, 176, 174, 193
205, 189, 194, 175
193, 205, 198, 200
197, 188, 203, 206
205, 188, 235, 215
191, 242, 196, 208
226, 242, 199, 211
223, 239, 233, 196
213, 227, 229, 223
244, 239, 242, 251
295, 275, 346, 338
532, 585, 638, 681
982, 1047, 1026, 1074
2510, 3593, 4782, 6905
45201.3, 49403.9, 43987.3, 39504.5
11767.3, 14569, 16997.2, 20079.1
10342, 6667, 4094, 2710
678, 624, 531, 510
404, 361, 344, 327
281, 294, 276, 235
221, 242, 220, 225
221, 197, 191, 183
190, 180, 177, 178
183, 183, 158, 173
190, 163, 167, 153
140, 167, 153, 143
163, 136, 159, 113
159, 126, 151, 135
139, 151, 159, 130
119, 126, 132, 162
132, 149, 144, 142
146, 143, 150, 134
143, 137, 157, 150
140, 133, 143, 148
129, 145, 151, 140
142, 169, 152, 157
160, 165, 159, 170
197, 172, 193, 175
245, 260, 299, 316
491, 534, 625, 679
1279, 1486, 1600, 1732
2759, 2903, 3053, 3337
3932, 4200, 4073, 4098
4022, 3904, 3789, 3724
2848, 2597, 2515, 2273
1413, 1358, 1177, 1098
602, 592, 520, 488
307, 330, 261, 292
223, 224, 199, 202
143, 165, 168, 146
144, 149, 123, 136
124, 133, 125, 118
118, 113, 122, 123
123, 114, 127, 116
110, 124, 105, 108
129, 106, 95, 124
86, 120, 119, 110
111, 107, 121, 99
108, 110, 132, 143
89, 114, 125, 106
115, 121, 123, 126
98, 123, 107, 123
98, 123, 102, 106
111, 96, 107, 106
84, 99, 128, 132
94, 127, 97, 122
117, 112, 111, 108
103, 102, 92, 103
100, 94, 94, 97
121, 97, 109, 97
86, 103, 131, 110
111, 97, 93, 109
117, 103, 92, 91
116, 103, 123, 101
94, 100, 113, 106
96, 117, 91, 82
108, 82, 112, 103
108, 113, 86, 105
112, 118, 134, 91
104, 107, 107, 113
93, 132, 116, 105
108, 95, 113, 96
119, 112, 98, 117
111, 101, 99, 107
93, 114, 103, 108
88, 122, 98, 101
95, 101, 99, 125
118, 113, 105, 109
127, 104, 108, 117
135, 122, 110, 88
116, 102, 97, 113
111, 93, 103, 97
102, 105, 110, 86
94, 105, 100, 94
104, 103, 111, 96
81, 104, 114, 91
104, 103, 111, 104
95, 108, 102, 106
106, 87, 113, 87
87, 93, 104, 100
100, 102, 99, 100
106, 102, 90, 107
107, 108, 112, 118
100, 103, 116, 99
118, 100, 93, 81
124, 102, 106, 101
116, 100, 116, 95
103, 106, 112, 110
96, 112, 106, 108
110, 116, 112, 105
114, 98, 111, 116
89, 100, 105, 106
107, 105, 103, 92
85, 114, 105, 92
119, 118, 104, 103
102, 92, 115, 98
94, 121, 88, 103
100, 91, 114, 119
114, 109, 106, 106
99, 94, 116, 91
100, 103, 92, 111
119, 104, 116, 105
119, 106, 118, 107
109, 112, 115, 111
113, 97, 101, 104
113, 109, 92, 95
77, 87, 106, 117
94, 109, 112, 100
86, 93, 112, 109
114, 104, 113, 105
94, 96, 91, 88
112, 92, 107, 91
104, 121, 96, 111
100, 94, 108, 101
109, 97, 90, 90
100, 114, 113, 100
107, 120, 94, 115
104, 109, 112, 115
116, 93, 117, 95
126, 99, 120, 85
105, 105, 80, 101
111, 94, 104, 107
101, 108, 99, 128
124, 123, 112, 103
133, 116, 82, 124
119, 94, 107, 93
101, 98, 105, 105
124, 93, 109, 120
94, 113, 113, 108
116, 118, 102, 98
108, 97, 99, 104
83, 104, 100, 110
101, 100, 120, 110
121, 103, 95, 106
91, 96, 109, 94
91, 109, 106, 112
96, 113, 120, 93
108, 107, 119, 114
105, 113, 102, 95
100, 93, 107, 100
109, 101, 98, 104
133, 90, 114, 96
114, 95, 122, 107
102, 87, 108, 117
111, 103, 102, 87
109, 121, 111, 116
99, 107, 117, 116
112, 107, 113, 115
89, 103, 100, 124
120, 114, 96, 98
95, 127, 117, 105
99, 105, 111, 113
115, 111, 94, 95
102, 100, 106, 99
93, 102, 117, 106
120, 110, 92, 101
102, 120, 103, 128
113, 100, 95, 114
94, 121, 117, 103
98, 99, 112, 106
119, 101, 106, 124
126, 121, 104, 101
114, 84, 99, 108
108, 95, 112, 100
111, 97, 111, 113
117, 111, 106, 105
111, 112, 105, 102
111, 117, 89, 100
111, 133, 102, 117
92, 99, 108, 95
115, 95, 114, 132
99, 106, 94, 83
103, 107, 129, 80
101, 105, 117, 108
91, 80, 98, 109
103, 91, 95, 105
96, 110, 93, 121
117, 106, 115, 114
100, 124, 103, 92
93, 107, 98, 109
93, 108, 100, 97
103, 86, 103, 112
118, 112, 106, 100
104, 103, 101, 89
99, 105, 90, 120
90, 105, 101, 104
94, 96, 110, 122
105, 108, 102, 103
102, 103, 108, 102
108, 126, 90, 109
106, 115, 107, 107
119, 87, 101, 117
107, 110, 92, 82
103, 106, 122, 105
121, 110, 101, 98
98, 95, 105, 100
110, 115, 106, 99
96, 111, 105, 100
128, 103, 109, 100
111, 108, 118, 94
109, 125, 91, 103
90, 107, 86, 92
114, 109, 106, 103
121, 95, 107, 88
113, 105, 113, 118
87, 110, 103, 113
95, 129, 105, 112
108, 129, 98, 77
122, 94, 124, 123
99, 106, 108, 114
112, 121, 124, 122
102, 114, 117, 102
121, 93, 103, 98
116, 121, 103, 123
116, 98, 119, 105
99, 114, 116, 113
81, 87, 102, 106
92, 91, 97, 114
109, 122, 96, 119
106, 96, 109, 105
94, 103, 99, 115
102, 120, 93, 104
132, 107, 109, 89
99, 110, 100, 112
118, 104, 100, 80
83, 96, 122, 84
119, 111, 123, 101
110, 108, 106, 108
118, 96, 103, 96
112, 114, 116, 110
109, 97, 113, 97
109, 100, 118, 98
97, 100, 100, 113
126, 103, 101, 105
98, 98, 102, 112
109, 104, 101, 128
96, 106, 103, 100
112, 112, 102, 110
93, 82, 98, 118
100, 103, 121, 87
104, 113, 83, 109
118, 107, 94, 92
109, 87, 113, 102
121, 115, 113, 91
99, 101, 105, 107
115, 125, 113, 128
108, 94, 118, 108
92, 126, 109, 120
108, 97, 93, 111
107, 114, 103, 118
91, 95, 111, 118
109, 112, 100, 112
98, 107, 90, 107
94, 122, 109, 94
98, 99, 107, 100
96, 110, 99, 112
109, 100, 103, 112
113, 100, 99, 106
111, 102, 99, 96
97, 116, 103, 103
109, 101, 119, 116
81, 99, 86, 104
85, 113, 120, 88
98, 129, 101, 96
100, 96, 128, 104
108, 100, 103, 103
113, 98, 111, 129
103, 103, 99, 107
97, 116, 127, 114
107, 102, 118, 88
97, 90, 112, 96
116, 127, 95, 118
103, 102, 114, 120
110, 91, 104, 110
127, 105, 104, 110
109, 121, 113, 106
128, 109, 95, 103
116, 139, 115, 100
121, 121, 117, 127
112, 125, 121, 111
116, 119, 107, 107
121, 111, 118, 116
103, 111, 106, 120
119, 99, 108, 95
101, 108, 97, 106
127, 119, 101, 103
121, 118, 120, 99
105, 107, 107, 116
99, 112, 96, 89
109, 117, 110, 95
112, 93, 107, 110
99, 123, 93, 116
107, 110, 96, 108
117, 109, 104, 105
97, 103, 105, 115
106, 108, 100, 97
118, 102, 103, 100
103, 103, 100, 130
116, 93, 113, 105
91, 115, 122, 94
114, 115, 85, 109
112, 107, 110, 78
93, 93, 95, 113
100, 113, 96, 118
95, 85, 104, 89
118, 110, 93, 109
111, 123, 108, 95
100, 118, 115, 105
108, 117, 110, 103
129, 98, 119, 111
133, 127, 121, 131
125, 110, 118, 139
108, 140, 139, 117
115, 115, 113, 103
82, 114, 109, 89
112, 100, 95, 96
101, 102, 106, 104
121, 107, 107, 101
113, 118, 102, 104
129, 110, 103, 113
118, 118, 103, 105
108, 105, 124, 107
93, 115, 99, 126
116, 95, 96, 89
107, 100, 101, 107
109, 98, 107, 114
113, 115, 107, 95
79, 122, 104, 108
105, 113, 114, 101
103, 111, 114, 119
125, 111, 130, 100
127, 111, 113, 98
105, 95, 101, 106
108, 110, 110, 121
122, 112, 97, 105
111, 111, 101, 112
125, 129, 102, 111
99, 107, 99, 83
96, 116, 122, 110
116, 119, 108, 107
88, 98, 102, 108
107, 129, 109, 94
112, 98, 124, 131
105, 97, 106, 121
94, 115, 133, 119
130, 108, 95, 105
98, 99, 107, 111
99, 111, 121, 89
109, 107, 96, 113
96, 99, 118, 121
121, 130, 98, 111
115, 106, 90, 116
140, 124, 120, 115
100, 105, 102, 120
106, 99, 110, 111
122, 108, 102, 103
104, 107, 121, 122
130, 114, 116, 128
113, 111, 87, 101
118, 127, 117, 108
123, 103, 119, 104
125, 107, 115, 128
108, 122, 120, 125
106, 108, 122, 116
139, 126, 107, 124
123, 129, 118, 131
128, 143, 113, 132
144, 131, 145, 147
123, 156, 129, 147
171, 168, 127, 163
151, 147, 143, 144
138, 134, 122, 130
165, 124, 107, 113
109, 135, 129, 91
108, 118, 120, 111
138, 113, 135, 100
128, 129, 132, 118
127, 128, 125, 148
125, 138, 107, 132
118, 104, 138, 125
131, 132, 134, 140
121, 122, 127, 139
123, 124, 125, 124
115, 148, 120, 132
133, 126, 130, 148
142, 134, 137, 129
148, 121, 134, 136
116, 128, 125, 112
129, 131, 150, 138
129, 108, 150, 126
145, 122, 145, 153
130, 138, 132, 121
120, 121, 144, 130
115, 129, 142, 111
142, 125, 146, 129
120, 122, 131, 141
121, 130, 150, 137
135, 157, 142, 146
164, 146, 146, 147
127, 128, 134, 132
149, 147, 133, 149
161, 145, 139, 154
160, 151, 160, 146
179, 166, 155, 159
165, 152, 163, 177
203, 177, 160, 200
195, 199, 191, 207
224, 235, 235, 228
271, 307, 284, 316
406, 359, 471, 464
532, 606, 633, 732
919, 1012, 1091, 1222
1751, 1955, 2076, 2272
3184, 3404, 3438, 3713
4401, 4573, 4553, 4753
4927, 4719, 4833, 4768
4382, 4282, 4100, 3837
3373, 3182, 3129, 3006
2491, 2241, 2251, 2131
1468, 1351, 1234, 1182
823, 728, 661, 649
409, 380, 408, 377
265, 278, 272, 233
217, 219, 185, 220
184, 191, 170, 195
171, 192, 166, 153
171, 166, 162, 164
143, 142, 149, 141
125, 138, 138, 141
135, 131, 136, 131
151, 145, 126, 120
134, 132, 132, 131
142, 119, 138, 143
121, 130, 103, 110
146, 129, 124, 144
126, 126, 118, 119
136, 126, 110, 102
123, 131, 131, 119
124, 115, 117, 114
124, 102, 97, 113
122, 111, 136, 131
110, 125, 145, 137
123, 132, 136, 139
122, 124, 122, 117
131, 109, 111, 108
125, 123, 110, 134
122, 101, 117, 139
105, 120, 125, 99
92, 127, 116, 113
116, 124, 112, 112
117, 109, 114, 121
111, 114, 105, 93
132, 110, 115, 119
129, 135, 114, 129
111, 115, 115, 113
109, 115, 99, 102
116, 119, 102, 105
130, 129, 123, 92
117, 98, 123, 117
101, 99, 107, 98
118, 94, 120, 96
129, 103, 103, 98
105, 130, 109, 117
100, 103, 133, 109
132, 107, 92, 112
125, 102, 117, 135
107, 121, 104, 120
119, 106, 109, 108
126, 136, 105, 117
115, 123, 113, 123
132, 147, 124, 124
166
*END

*EOF