File: XRD-20251211/1-7_2-Theta_Omega.asc
*TYPE		=  Raw
*CLASS		=  ASCII CLASS
*SAMPLE		=
*COMMENT	=
*FNAME		=  1-7_2-Theta_Omega.asc
*DATE		=  11-Dec-25 15:42

*GROUP_COUNT	=  1
*GONIO		=  SmartLab(In-plane), 0.000000
*ATTACHMENT	=  Z-Phi Stage
*ASC		=  0, 0, 0.000000, 0.000000
*I_MONOCHRO	=  Soller_slit_5.0deg, 0.000000
*FILTER		=  None
*C_MONOCHRO	=  None, 0.000000
*SLIT_NAME	=  0, Incident slit
*SLIT_NAME	=  1, Receiving slit # 1
*SLIT_NAME	=  2, Receiving slit # 2
*COUNTER	=  SC-70, 0
*POS_FORMAT	=  0
*SCAN_AXIS	=  2Theta/Omega
*MEAS_MODE	=  Continuous Scanning
*TARGET		=  29
*XRAY_CHAR	=  K-ALPHA
*WAVE_LENGTH1	=  1.54059
*WAVE_LENGTH2	=  1.54441
*THICKNESS	=  0, 0.000000
*MU		=  0, 0.000000
*SCAN_MODE	=  2Theta/Omega
*SPEED_DIM	=  sec./step
*XUNIT		=  deg.
*YUNIT		=  counts
*SCALE_MODE	=  1
*REP_COUNT	=  0
*SE_COUNT	=  0
*STD_MATERIAL	=  Unknown, Unknown, 0.000000, 0.000000, 0.000000, 0.000000, 0.000000, 0.000000
*LATT_CONS	=  0, Unknown, Unknown, 0.000000, 0.000000, 0.000000, 0.000000, 0.000000, 0.000000
*SEC_COUNT	=  1
*TSPEC_SIZE	=  0
*EXTRA_SIZE	=  0
*MEMO		=

*BEGIN
*GROUP		=  0
*START		=  20
*STOP		=  80
*STEP		=  0.01
*OFFSET		=  0.000000
*SPEED		=  0.05
*SLIT_SPEC	=  0, 1.000mm, 1, 0.000000
*SLIT_SPEC	=  1, 1.000mm, 1, 0.000000
*SLIT_SPEC	=  2, 1.000mm, 1, 0.000000
*KV		=  40
*MA		=  100
*LOW		=  0.000000
*HIGH		=  0.000000
*CTEMPER	=  0, 0.000000
*CTEMPER	=  1, 0.000000
*CTEMPER	=  2, 0.000000
*PAREX		=  0, 0.000000
*PAREX		=  1, 0.000000
*PAREX		=  2, 0.000000
*PAREX		=  3, 0.000000
*PAREX		=  4, 0.000000
*PAREX		=  5, 0.000000
*PAREX		=  6, 0.000000
*PAREX		=  7, 0.000000
*PAREX		=  8, 0.000000
*PAREX		=  9, 0.000000
*PAREX		=  10, 0.000000
*PAREX		=  11, 0.000000
*PAREX		=  12, 0.000000
*PAREX		=  13, 0.000000
*PAREX		=  14, 0.000000
*PAREX		=  15, 0.000000
*FULL_SCALE	=  49728
*INDEX		=  0, 0, 0
*COUNT		=  6001
79, 77, 95, 94
85, 81, 75, 100
112, 80, 85, 77
90, 77, 94, 81
87, 86, 89, 93
66, 83, 91, 91
94, 99, 76, 92
75, 86, 83, 86
96, 90, 92, 107
96, 82, 82, 73
82, 91, 89, 93
81, 84, 89, 76
86, 81, 79, 92
87, 75, 84, 92
79, 85, 85, 77
83, 89, 78, 71
96, 69, 77, 85
81, 88, 73, 71
69, 71, 77, 67
97, 83, 83, 84
83, 89, 88, 88
90, 83, 80, 91
85, 82, 75, 80
85, 91, 72, 66
91, 92, 91, 92
80, 75, 83, 91
91, 103, 93, 81
87, 90, 74, 88
89, 79, 104, 82
86, 81, 88, 87
82, 94, 76, 73
80, 67, 89, 93
82, 78, 80, 69
94, 73, 83, 81
80, 77, 67, 88
86, 86, 87, 91
85, 75, 80, 100
97, 91, 91, 84
97, 86, 99, 82
87, 91, 78, 88
94, 94, 99, 81
100, 89, 91, 79
87, 89, 98, 74
83, 81, 86, 99
75, 75, 85, 72
92, 74, 94, 63
86, 94, 79, 80
85, 78, 86, 86
82, 91, 100, 86
81, 76, 98, 85
67, 104, 77, 93
80, 93, 89, 90
87, 101, 88, 91
78, 85, 85, 95
83, 89, 81, 84
97, 78, 95, 90
94, 85, 91, 94
101, 98, 81, 80
96, 101, 85, 84
97, 90, 98, 85
95, 87, 80, 94
93, 95, 98, 88
94, 88, 121, 104
100, 90, 92, 89
96, 84, 96, 89
117, 98, 102, 107
92, 115, 106, 95
94, 101, 89, 97
128, 106, 99, 122
109, 102, 106, 103
131, 123, 99, 111
118, 111, 131, 121
129, 117, 121, 119
133, 135, 119, 154
148, 139, 131, 179
154, 176, 141, 166
194, 199, 173, 215
187, 231, 208, 189
236, 246, 220, 246
238, 240, 226, 263
245, 255, 245, 216
224, 268, 214, 229
217, 238, 206, 209
202, 191, 214, 167
183, 172, 180, 183
160, 166, 170, 147
149, 148, 143, 122
115, 112, 120, 113
112, 106, 126, 115
101, 102, 108, 105
113, 100, 94, 107
102, 103, 101, 109
85, 83, 94, 97
103, 101, 82, 106
97, 92, 81, 89
100, 89, 82, 84
83, 94, 78, 78
81, 100, 101, 84
86, 95, 105, 96
87, 74, 88, 100
82, 72, 84, 107
96, 91, 82, 90
71, 92, 56, 91
82, 87, 78, 92
76, 101, 74, 76
61, 67, 100, 72
90, 86, 90, 90
82, 64, 82, 84
77, 80, 76, 72
75, 82, 82, 80
89, 81, 72, 93
74, 79, 78, 84
72, 70, 92, 58
100, 88, 85, 87
86, 88, 89, 94
68, 84, 79, 72
90, 84, 88, 87
100, 93, 92, 94
99, 79, 82, 73
82, 95, 90, 81
94, 84, 79, 92
90, 81, 77, 80
87, 90, 105, 91
101, 78, 82, 83
99, 89, 91, 76
84, 88, 86, 69
80, 94, 89, 74
65, 81, 85, 86
82, 87, 68, 84
78, 92, 77, 72
89, 93, 79, 79
95, 82, 84, 79
106, 57, 91, 77
73, 92, 86, 83
90, 92, 86, 106
99, 86, 82, 77
76, 84, 80, 74
74, 69, 75, 83
88, 93, 95, 87
81, 76, 95, 75
71, 71, 81, 67
79, 87, 88, 71
102, 82, 83, 79
77, 74, 96, 97
104, 82, 77, 83
72, 98, 92, 91
72, 78, 67, 76
74, 79, 69, 85
90, 83, 78, 94
85, 79, 84, 71
95, 69, 85, 75
91, 78, 65, 80
77, 84, 94, 106
94, 79, 82, 85
82, 79, 93, 89
100, 75, 81, 89
88, 89, 88, 73
84, 70, 99, 86
96, 70, 86, 94
90, 94, 101, 77
80, 89, 82, 75
88, 90, 85, 77
88, 63, 91, 82
85, 86, 86, 97
90, 88, 111, 79
92, 70, 81, 72
80, 79, 82, 76
87, 89, 87, 77
85, 85, 80, 84
87, 60, 99, 74
86, 105, 89, 96
90, 81, 69, 85
86, 70, 80, 75
95, 87, 73, 101
84, 95, 92, 96
84, 77, 91, 101
56, 87, 69, 85
81, 81, 78, 82
103, 91, 81, 80
102, 94, 85, 92
87, 90, 84, 91
81, 92, 96, 79
83, 100, 81, 77
75, 77, 87, 92
78, 73, 86, 97
101, 90, 73, 86
95, 76, 77, 93
101, 69, 104, 89
92, 90, 82, 91
74, 98, 91, 92
100, 101, 79, 95
88, 83, 90, 94
87, 90, 80, 95
91, 96, 96, 98
93, 95, 97, 104
95, 114, 84, 112
100, 88, 81, 109
97, 109, 119, 108
102, 127, 111, 95
126, 117, 137, 132
111, 103, 113, 131
113, 126, 116, 115
100, 118, 129, 112
109, 133, 131, 113
110, 109, 117, 110
130, 104, 104, 101
94, 102, 93, 105
110, 93, 104, 103
83, 75, 94, 84
95, 88, 81, 92
102, 90, 95, 82
100, 98, 105, 94
80, 80, 90, 77
79, 104, 93, 78
89, 79, 97, 88
95, 88, 88, 65
81, 78, 86, 88
78, 77, 99, 79
77, 92, 92, 88
93, 78, 96, 81
94, 71, 87, 78
89, 79, 79, 79
101, 81, 85, 91
97, 87, 80, 80
78, 83, 95, 77
76, 91, 82, 95
75, 96, 86, 85
94, 87, 79, 76
82, 83, 82, 85
95, 82, 88, 107
70, 106, 94, 80
86, 93, 99, 93
81, 99, 82, 85
67, 85, 78, 99
105, 90, 109, 81
86, 81, 86, 101
93, 95, 108, 84
87, 77, 72, 90
87, 87, 87, 84
73, 100, 77, 84
80, 98, 87, 84
79, 77, 77, 101
78, 100, 76, 74
74, 89, 92, 93
95, 100, 82, 102
78, 87, 85, 77
75, 94, 112, 83
94, 95, 91, 86
102, 88, 97, 94
84, 89, 79, 99
91, 87, 89, 97
75, 73, 62, 86
99, 82, 94, 91
88, 69, 79, 102
81, 88, 87, 83
72, 81, 72, 80
83, 76, 73, 68
76, 86, 89, 96
97, 85, 95, 92
78, 100, 100, 80
90, 78, 91, 83
90, 67, 81, 89
106, 79, 110, 90
100, 98, 83, 88
79, 78, 80, 71
78, 86, 91, 80
85, 96, 103, 83
96, 83, 81, 94
87, 81, 95, 92
87, 92, 92, 89
80, 108, 101, 79
82, 98, 97, 113
77, 90, 94, 97
70, 115, 87, 101
90, 78, 89, 99
79, 104, 82, 92
82, 85, 91, 114
96, 82, 100, 95
125, 120, 97, 111
101, 94, 114, 104
105, 86, 113, 104
106, 97, 117, 85
88, 101, 108, 104
120, 104, 107, 109
121, 99, 95, 97
110, 97, 113, 100
123, 138, 95, 129
104, 117, 121, 116
115, 102, 102, 117
94, 100, 97, 102
105, 124, 115, 119
104, 117, 108, 112
95, 115, 115, 120
120, 118, 119, 127
116, 126, 137, 112
133, 108, 112, 118
125, 122, 120, 122
120, 136, 125, 140
145, 147, 172, 148
189, 206, 221, 206
282, 330, 379, 440
724, 766, 874, 989
1526, 1614, 1695, 1739
1876, 2072, 1927, 1983
1728, 1646, 1619, 1499
1068, 986, 916, 876
541, 476, 433, 388
270, 221, 230, 220
163, 165, 140, 171
130, 124, 146, 127
142, 123, 121, 111
132, 121, 119, 95
94, 117, 113, 110
113, 111, 107, 110
106, 99, 98, 93
98, 93, 98, 98
107, 111, 108, 103
94, 98, 92, 105
94, 99, 102, 117
121, 93, 99, 96
101, 87, 84, 108
94, 95, 88, 88
103, 105, 103, 96
103, 101, 97, 82
112, 96, 91, 102
100, 93, 105, 100
79, 84, 93, 99
105, 87, 108, 85
102, 75, 99, 103
100, 86, 87, 94
90, 88, 69, 99
96, 90, 93, 77
93, 81, 91, 94
97, 95, 90, 102
80, 80, 86, 106
79, 96, 96, 95
89, 87, 97, 93
83, 91, 84, 105
88, 90, 94, 88
84, 92, 80, 90
79, 86, 108, 86
83, 91, 96, 85
100, 87, 86, 99
100, 77, 98, 96
123, 84, 88, 92
74, 88, 97, 97
86, 96, 84, 95
88, 87, 90, 92
83, 84, 91, 80
104, 99, 79, 76
99, 109, 100, 85
90, 93, 92, 101
92, 100, 108, 118
96, 93, 93, 97
80, 88, 91, 92
88, 79, 103, 89
81, 106, 76, 96
90, 78, 87, 82
83, 76, 95, 98
99, 80, 76, 79
86, 70, 86, 109
74, 87, 76, 108
80, 101, 99, 97
99, 94, 102, 90
69, 88, 92, 84
98, 82, 87, 101
76, 84, 85, 100
84, 104, 82, 93
81, 95, 103, 88
91, 79, 92, 96
95, 106, 103, 92
84, 96, 103, 90
97, 99, 83, 103
76, 79, 83, 89
91, 96, 90, 82
83, 82, 75, 75
87, 89, 101, 85
70, 100, 94, 95
86, 89, 78, 79
95, 97, 93, 93
91, 102, 69, 100
87, 85, 97, 89
84, 81, 95, 75
92, 96, 83, 74
82, 82, 106, 77
93, 82, 101, 77
66, 94, 81, 96
92, 88, 95, 84
103, 88, 94, 99
92, 88, 82, 86
75, 94, 77, 100
94, 108, 97, 108
98, 99, 95, 100
91, 88, 92, 83
84, 95, 86, 79
83, 86, 94, 92
83, 90, 100, 84
83, 75, 87, 87
82, 96, 73, 99
73, 83, 94, 77
102, 97, 89, 104
100, 93, 104, 85
77, 94, 86, 90
95, 82, 99, 79
94, 82, 93, 94
85, 97, 78, 96
88, 92, 99, 95
82, 84, 70, 93
83, 94, 95, 111
82, 85, 90, 85
86, 88, 102, 97
93, 99, 96, 94
95, 99, 102, 101
93, 96, 104, 94
99, 105, 104, 78
102, 104, 85, 89
72, 100, 78, 89
108, 108, 76, 94
106, 96, 104, 85
81, 94, 97, 89
101, 79, 110, 103
92, 117, 107, 96
102, 102, 102, 98
98, 94, 111, 97
97, 112, 101, 120
93, 101, 100, 81
113, 89, 91, 90
86, 103, 84, 117
84, 102, 90, 94
94, 88, 71, 79
102, 84, 103, 86
87, 95, 93, 109
97, 91, 133, 98
96, 93, 86, 93
92, 97, 94, 96
75, 102, 83, 72
104, 101, 93, 86
93, 108, 92, 92
101, 102, 83, 82
108, 74, 102, 81
103, 94, 97, 85
80, 76, 82, 79
78, 95, 84, 78
82, 87, 88, 75
83, 71, 81, 85
101, 77, 80, 86
105, 103, 97, 96
88, 100, 105, 102
90, 89, 93, 79
95, 77, 90, 79
94, 85, 83, 82
95, 82, 99, 82
92, 95, 96, 82
97, 66, 80, 105
85, 83, 92, 97
85, 89, 99, 80
73, 90, 110, 71
103, 87, 89, 85
81, 94, 97, 82
90, 103, 95, 93
102, 79, 97, 83
82, 104, 98, 81
107, 83, 90, 102
105, 80, 91, 87
86, 84, 111, 95
88, 88, 89, 92
76, 93, 92, 89
88, 110, 100, 87
101, 91, 91, 92
92, 91, 96, 104
90, 83, 68, 89
89, 89, 88, 88
80, 90, 106, 100
90, 102, 91, 72
88, 108, 86, 91
97, 78, 86, 98
97, 88, 94, 84
87, 89, 90, 103
93, 82, 98, 84
98, 89, 71, 94
84, 96, 95, 86
76, 96, 96, 78
101, 105, 102, 97
103, 102, 91, 87
89, 83, 86, 85
96, 82, 93, 86
82, 90, 70, 95
77, 92, 108, 86
102, 81, 99, 112
76, 78, 88, 86
87, 98, 86, 92
76, 82, 84, 91
83, 90, 95, 88
99, 90, 101, 96
72, 82, 85, 89
86, 111, 91, 96
90, 93, 90, 96
78, 98, 83, 88
87, 83, 96, 101
89, 103, 100, 74
93, 87, 97, 81
93, 99, 98, 101
75, 85, 80, 95
87, 103, 89, 123
100, 77, 103, 101
100, 88, 79, 91
83, 85, 99, 93
78, 70, 94, 82
102, 97, 70, 101
98, 96, 99, 94
106, 92, 96, 87
95, 90, 102, 84
90, 106, 83, 96
109, 102, 80, 100
93, 88, 102, 90
95, 87, 85, 101
81, 89, 94, 100
95, 98, 82, 101
103, 98, 96, 85
86, 92, 86, 116
83, 90, 102, 97
90, 85, 112, 85
81, 102, 81, 106
88, 80, 95, 91
85, 113, 84, 90
83, 97, 91, 82
90, 85, 79, 101
107, 94, 86, 84
104, 91, 102, 76
84, 90, 92, 102
88, 93, 102, 111
69, 91, 95, 99
100, 86, 95, 84
87, 89, 75, 89
101, 110, 78, 81
110, 76, 77, 88
97, 97, 88, 85
86, 95, 88, 104
89, 89, 94, 94
96, 77, 80, 81
107, 90, 108, 85
91, 98, 96, 75
98, 85, 94, 102
94, 101, 84, 95
89, 75, 92, 89
100, 93, 94, 91
87, 102, 99, 89
96, 91, 87, 90
82, 99, 75, 96
91, 96, 86, 87
69, 112, 96, 94
102, 101, 103, 89
89, 89, 107, 89
95, 90, 89, 98
94, 99, 108, 99
109, 102, 108, 92
99, 109, 105, 101
113, 114, 101, 121
98, 115, 110, 121
99, 106, 91, 109
103, 91, 105, 100
110, 112, 104, 87
103, 81, 98, 83
87, 88, 101, 103
94, 93, 85, 99
82, 71, 86, 110
94, 88, 98, 102
93, 105, 97, 103
77, 87, 94, 86
87, 91, 92, 71
114, 87, 87, 104
87, 102, 81, 92
92, 82, 66, 94
100, 100, 91, 95
66, 94, 103, 103
80, 94, 81, 116
92, 102, 88, 94
91, 94, 106, 104
91, 94, 99, 88
92, 92, 101, 89
72, 82, 103, 86
104, 102, 79, 96
90, 96, 104, 99
84, 86, 95, 87
86, 107, 88, 112
70, 85, 85, 83
71, 100, 82, 96
95, 88, 88, 93
93, 106, 100, 83
88, 92, 93, 85
94, 108, 79, 105
91, 93, 96, 89
89, 106, 107, 93
95, 94, 92, 96
70, 110, 87, 102
91, 97, 93, 103
103, 94, 91, 115
103, 96, 97, 87
104, 82, 84, 89
107, 98, 87, 82
90, 86, 124, 98
99, 103, 89, 103
76, 85, 91, 97
95, 96, 96, 102
99, 93, 89, 93
101, 97, 79, 107
101, 100, 96, 93
102, 89, 99, 94
89, 95, 103, 101
86, 84, 96, 91
81, 88, 108, 102
85, 101, 83, 88
86, 96, 89, 89
102, 109, 88, 90
89, 93, 105, 88
95, 85, 111, 86
95, 93, 88, 110
91, 97, 87, 97
100, 104, 97, 109
94, 94, 89, 94
109, 85, 105, 95
85, 108, 88, 100
82, 93, 98, 101
91, 118, 88, 75
77, 113, 100, 86
96, 111, 89, 97
86, 82, 94, 111
101, 91, 89, 87
99, 81, 103, 82
114, 96, 97, 99
94, 92, 99, 82
113, 105, 98, 81
104, 88, 88, 87
89, 80, 117, 93
112, 92, 83, 83
90, 77, 100, 82
100, 94, 102, 91
101, 99, 98, 94
73, 93, 89, 100
86, 114, 88, 84
104, 94, 85, 88
102, 81, 104, 95
108, 108, 105, 97
83, 104, 87, 110
69, 94, 81, 116
91, 122, 104, 104
117, 93, 95, 106
92, 103, 124, 106
102, 97, 110, 98
106, 92, 125, 104
121, 107, 123, 122
88, 95, 100, 88
107, 88, 83, 86
99, 102, 98, 101
104, 103, 83, 87
98, 94, 84, 94
99, 78, 81, 99
92, 89, 98, 101
86, 120, 93, 102
94, 97, 95, 91
98, 98, 94, 110
85, 93, 109, 107
98, 110, 110, 102
96, 101, 97, 104
118, 115, 93, 88
96, 85, 93, 98
100, 104, 96, 104
113, 85, 101, 104
112, 108, 93, 119
105, 95, 98, 76
91, 106, 89, 99
108, 94, 103, 107
108, 101, 84, 117
107, 104, 98, 97
96, 87, 92, 97
106, 98, 93, 99
100, 94, 94, 103
114, 110, 88, 94
86, 123, 118, 115
119, 105, 112, 98
108, 114, 95, 101
120, 102, 103, 123
97, 104, 104, 98
104, 123, 99, 131
103, 115, 109, 117
108, 100, 93, 121
117, 93, 117, 108
104, 121, 144, 146
122, 120, 141, 149
139, 146, 151, 159
196, 190, 176, 195
280, 246, 293, 300
471, 520, 605, 595
969, 984, 1095, 1118
1278, 1364, 1419, 1464
1298, 1357, 1319, 1260
1173, 1115, 1092, 1049
874, 856, 893, 782
639, 631, 565, 574
402, 333, 334, 316
244, 206, 208, 165
159, 148, 147, 148
150, 139, 132, 112
112, 108, 117, 106
121, 115, 104, 123
117, 119, 121, 102
96, 133, 104, 99
119, 126, 103, 93
105, 90, 100, 91
117, 111, 103, 103
106, 87, 98, 110
104, 96, 115, 99
88, 105, 96, 111
107, 102, 109, 113
95, 110, 95, 104
99, 95, 90, 116
92, 112, 98, 107
90, 107, 111, 116
93, 103, 107, 99
108, 120, 104, 69
122, 115, 95, 86
112, 102, 95, 90
122, 98, 97, 101
107, 101, 103, 104
97, 97, 97, 88
97, 103, 131, 87
126, 110, 110, 119
110, 117, 110, 83
96, 105, 129, 104
95, 99, 113, 102
135, 114, 104, 101
117, 97, 104, 107
94, 106, 110, 98
120, 82, 104, 96
104, 105, 101, 83
119, 96, 83, 116
99, 102, 108, 122
95, 114, 104, 104
110, 91, 95, 104
97, 106, 104, 91
103, 92, 99, 93
94, 93, 90, 94
91, 88, 103, 104
106, 109, 98, 109
99, 107, 109, 125
100, 89, 92, 117
102, 101, 70, 104
109, 104, 98, 102
110, 83, 102, 92
94, 105, 117, 98
102
*END

*EOF