File: XRD-20251211/1-8_2-Theta_Omega.asc
*TYPE		=  Raw
*CLASS		=  ASCII CLASS
*SAMPLE		=
*COMMENT	=
*FNAME		=  1-8_2-Theta_Omega.asc
*DATE		=  11-Dec-25 15:50

*GROUP_COUNT	=  1
*GONIO		=  SmartLab(In-plane), 0.000000
*ATTACHMENT	=  Z-Phi Stage
*ASC		=  0, 0, 0.000000, 0.000000
*I_MONOCHRO	=  Soller_slit_5.0deg, 0.000000
*FILTER		=  None
*C_MONOCHRO	=  None, 0.000000
*SLIT_NAME	=  0, Incident slit
*SLIT_NAME	=  1, Receiving slit # 1
*SLIT_NAME	=  2, Receiving slit # 2
*COUNTER	=  SC-70, 0
*POS_FORMAT	=  0
*SCAN_AXIS	=  2Theta/Omega
*MEAS_MODE	=  Continuous Scanning
*TARGET		=  29
*XRAY_CHAR	=  K-ALPHA
*WAVE_LENGTH1	=  1.54059
*WAVE_LENGTH2	=  1.54441
*THICKNESS	=  0, 0.000000
*MU		=  0, 0.000000
*SCAN_MODE	=  2Theta/Omega
*SPEED_DIM	=  sec./step
*XUNIT		=  deg.
*YUNIT		=  counts
*SCALE_MODE	=  1
*REP_COUNT	=  0
*SE_COUNT	=  0
*STD_MATERIAL	=  Unknown, Unknown, 0.000000, 0.000000, 0.000000, 0.000000, 0.000000, 0.000000
*LATT_CONS	=  0, Unknown, Unknown, 0.000000, 0.000000, 0.000000, 0.000000, 0.000000, 0.000000
*SEC_COUNT	=  1
*TSPEC_SIZE	=  0
*EXTRA_SIZE	=  0
*MEMO		=

*BEGIN
*GROUP		=  0
*START		=  20
*STOP		=  80
*STEP		=  0.01
*OFFSET		=  0.000000
*SPEED		=  0.05
*SLIT_SPEC	=  0, 1.000mm, 1, 0.000000
*SLIT_SPEC	=  1, 1.000mm, 1, 0.000000
*SLIT_SPEC	=  2, 1.000mm, 1, 0.000000
*KV		=  40
*MA		=  100
*LOW		=  0.000000
*HIGH		=  0.000000
*CTEMPER	=  0, 0.000000
*CTEMPER	=  1, 0.000000
*CTEMPER	=  2, 0.000000
*PAREX		=  0, 0.000000
*PAREX		=  1, 0.000000
*PAREX		=  2, 0.000000
*PAREX		=  3, 0.000000
*PAREX		=  4, 0.000000
*PAREX		=  5, 0.000000
*PAREX		=  6, 0.000000
*PAREX		=  7, 0.000000
*PAREX		=  8, 0.000000
*PAREX		=  9, 0.000000
*PAREX		=  10, 0.000000
*PAREX		=  11, 0.000000
*PAREX		=  12, 0.000000
*PAREX		=  13, 0.000000
*PAREX		=  14, 0.000000
*PAREX		=  15, 0.000000
*FULL_SCALE	=  4567950.5
*INDEX		=  0, 0, 0
*COUNT		=  6001
98, 104, 72, 89
114, 98, 77, 83
86, 100, 102, 107
87, 82, 83, 85
95, 84, 97, 76
112, 104, 75, 101
91, 96, 104, 84
76, 94, 81, 77
88, 89, 91, 101
93, 76, 64, 86
91, 71, 104, 82
108, 78, 82, 83
88, 89, 93, 79
83, 95, 81, 81
73, 103, 75, 81
102, 89, 89, 95
96, 82, 87, 97
91, 91, 96, 84
90, 93, 106, 87
90, 87, 92, 88
97, 83, 99, 85
71, 82, 106, 102
103, 80, 104, 94
113, 107, 81, 106
99, 104, 101, 91
80, 80, 113, 93
90, 90, 89, 81
100, 85, 91, 81
77, 93, 94, 87
92, 107, 97, 99
81, 109, 85, 91
91, 95, 81, 86
103, 76, 97, 86
95, 79, 93, 101
94, 88, 97, 100
91, 85, 94, 102
103, 81, 102, 79
85, 100, 93, 83
97, 98, 91, 77
89, 83, 95, 80
83, 96, 101, 95
81, 80, 97, 73
95, 90, 83, 94
93, 77, 81, 87
88, 94, 103, 93
82, 91, 76, 89
86, 102, 88, 80
99, 90, 97, 103
82, 100, 84, 106
107, 103, 82, 91
101, 104, 89, 78
87, 103, 92, 106
95, 70, 82, 94
86, 101, 82, 96
92, 93, 94, 93
91, 80, 101, 115
113, 103, 105, 102
84, 85, 98, 88
108, 87, 60, 71
67, 90, 90, 94
91, 82, 95, 99
86, 101, 96, 87
90, 87, 107, 76
112, 90, 86, 91
85, 100, 97, 92
74, 91, 101, 88
90, 79, 98, 93
88, 93, 94, 88
79, 79, 85, 97
80, 87, 83, 90
85, 99, 114, 81
94, 99, 108, 96
88, 95, 99, 111
78, 83, 87, 91
79, 82, 113, 79
98, 90, 93, 97
96, 98, 117, 108
66, 108, 90, 84
102, 82, 91, 85
89, 94, 104, 88
80, 99, 82, 78
100, 91, 106, 84
100, 105, 104, 111
88, 78, 97, 94
106, 91, 93, 86
113, 101, 107, 80
85, 88, 96, 96
99, 90, 92, 97
75, 94, 98, 97
86, 92, 93, 109
96, 107, 107, 80
87, 100, 77, 81
94, 95, 110, 101
105, 106, 96, 87
94, 87, 84, 83
81, 99, 78, 108
99, 95, 105, 117
89, 103, 99, 85
106, 86, 103, 100
94, 86, 90, 85
100, 99, 103, 99
99, 91, 103, 99
72, 99, 92, 107
119, 102, 98, 94
103, 90, 109, 100
104, 89, 93, 86
109, 113, 100, 92
95, 109, 116, 92
111, 97, 94, 105
106, 102, 93, 99
95, 98, 98, 105
103, 101, 103, 86
85, 92, 113, 117
116, 96, 123, 107
91, 94, 104, 101
110, 88, 93, 89
92, 89, 76, 100
108, 97, 86, 88
92, 85, 101, 80
93, 93, 95, 86
97, 82, 100, 98
96, 109, 103, 104
93, 98, 103, 103
100, 91, 87, 108
85, 106, 95, 92
105, 108, 110, 95
109, 97, 98, 88
96, 96, 103, 99
88, 103, 119, 90
102, 77, 86, 96
118, 91, 100, 110
102, 113, 97, 89
90, 92, 88, 89
98, 83, 97, 110
99, 116, 109, 104
94, 101, 102, 112
136, 112, 139, 111
138, 142, 138, 131
287, 308, 369, 368
625, 630, 711, 735
975, 1063, 1045, 929
544, 449, 434, 379
193, 210, 156, 153
150, 169, 158, 144
129, 151, 119, 158
115, 156, 151, 130
128, 132, 142, 139
146, 140, 126, 142
122, 144, 114, 150
141, 144, 143, 160
141, 142, 164, 119
139, 154, 147, 150
133, 154, 159, 156
143, 176, 166, 150
164, 141, 174, 163
159, 162, 150, 159
195, 146, 172, 179
164, 209, 191, 184
194, 213, 187, 192
211, 215, 210, 214
257, 240, 262, 232
253, 286, 279, 294
441, 494, 586, 654
1089, 1219, 1264, 1305
1794, 1708, 1706, 1613
1006, 944, 826, 829
708, 656, 604, 629
718, 717, 712, 688
656, 626, 544, 544
554, 534, 566, 568
587, 560, 562, 569
625, 616, 597, 589
667, 669, 638, 694
689, 697, 721, 739
739, 798, 766, 760
841, 844, 844, 821
859, 926, 891, 907
1079, 996, 1108, 1087
1260, 1260, 1332, 1396
1962, 2228, 2364, 2564
4435, 5220, 7076, 10925
48563.4, 57062, 67848.7, 69576.4
114124, 125891, 136585, 147138
185475, 178237, 167731, 157551
116272, 103664, 90309.3, 78822.2
30725.7, 26289.6, 20312.6, 16576.9
4723, 3932, 3117, 2799
1743, 1688, 1447, 1417
1159, 1080, 1017, 1063
821, 838, 748, 778
657, 655, 659, 613
522, 551, 527, 508
448, 521, 513, 471
415, 411, 417, 439
384, 379, 367, 356
373, 333, 354, 366
332, 309, 269, 303
260, 265, 258, 244
204, 220, 241, 211
225, 232, 226, 202
185, 186, 197, 183
170, 165, 178, 178
159, 177, 180, 172
141, 175, 129, 150
144, 155, 147, 132
134, 127, 141, 144
156, 126, 109, 134
120, 139, 115, 143
130, 131, 136, 141
126, 120, 132, 127
127, 124, 109, 121
138, 137, 114, 131
126, 130, 112, 124
101, 125, 114, 128
106, 113, 109, 122
135, 125, 112, 128
133, 136, 126, 127
131, 132, 126, 117
119, 142, 136, 129
136, 128, 134, 159
130, 129, 129, 149
126, 124, 115, 110
116, 120, 125, 103
103, 107, 115, 112
130, 99, 98, 131
114, 101, 125, 99
100, 103, 110, 87
105, 103, 106, 106
120, 113, 122, 103
119, 117, 102, 127
114, 113, 114, 126
98, 98, 97, 118
106, 126, 108, 95
90, 100, 106, 110
119, 95, 103, 106
111, 102, 118, 102
133, 110, 103, 110
107, 85, 118, 101
122, 106, 114, 125
119, 107, 118, 108
92, 105, 95, 119
128, 114, 105, 87
91, 108, 115, 95
120, 108, 108, 97
139, 116, 121, 132
127, 116, 104, 103
121, 127, 122, 125
115, 145, 120, 94
112, 106, 135, 139
170, 129, 143, 132
127, 97, 141, 115
130, 120, 106, 124
96, 103, 115, 131
123, 124, 114, 132
125, 126, 117, 113
113, 119, 96, 90
113, 135, 122, 133
118, 100, 125, 116
114, 128, 113, 108
120, 138, 94, 112
91, 136, 116, 119
112, 131, 129, 129
114, 111, 115, 137
115, 114, 112, 105
101, 149, 122, 125
135, 125, 124, 131
136, 152, 156, 166
124, 129, 153, 141
162, 169, 146, 185
205, 207, 235, 276
1226, 1468, 1586, 1681
1087, 1095, 1299, 1699
4216, 3945, 3392, 2868
1776, 1852, 1987, 1999
798, 643, 484, 435
194, 196, 174, 167
153, 175, 161, 187
162, 122, 158, 111
142, 133, 140, 135
151, 116, 113, 144
116, 129, 118, 133
133, 134, 124, 111
113, 110, 111, 126
122, 133, 105, 108
125, 114, 122, 92
109, 122, 117, 117
133, 112, 112, 103
133, 124, 121, 118
142, 123, 130, 123
143, 123, 131, 144
122, 123, 98, 123
134, 152, 109, 125
133, 140, 111, 122
147, 157, 119, 127
144, 152, 148, 144
157, 156, 159, 143
168, 179, 187, 162
200, 253, 279, 298
475, 545, 643, 739
1893, 2136, 2212, 2369
3049, 3228, 3308, 3517
3457, 3228, 3143, 2916
2089, 1909, 1818, 1634
980, 885, 781, 670
393, 357, 394, 357
273, 287, 264, 246
230, 215, 191, 201
169, 151, 173, 160
134, 139, 132, 143
152, 143, 114, 121
123, 117, 151, 110
106, 117, 143, 138
119, 110, 111, 111
119, 134, 104, 116
132, 120, 92, 104
114, 127, 111, 128
114, 133, 124, 130
100, 104, 149, 136
111, 106, 107, 105
92, 111, 114, 107
122, 133, 131, 115
121, 117, 113, 110
115, 118, 123, 118
105, 99, 126, 118
89, 111, 125, 129
108, 105, 107, 104
95, 94, 105, 103
105, 107, 109, 102
105, 109, 103, 102
110, 105, 100, 104
96, 131, 101, 108
90, 108, 100, 107
99, 99, 116, 133
103, 97, 106, 104
115, 114, 104, 94
113, 122, 97, 105
106, 112, 102, 124
112, 101, 91, 115
96, 97, 114, 101
100, 116, 96, 105
110, 124, 111, 116
120, 107, 95, 110
112, 118, 109, 107
105, 120, 109, 105
110, 119, 116, 119
117, 126, 96, 119
100, 127, 122, 115
112, 112, 126, 125
111, 99, 108, 81
118, 115, 106, 109
120, 107, 115, 110
101, 122, 116, 121
111, 114, 112, 110
107, 101, 107, 99
114, 112, 103, 94
112, 123, 93, 114
120, 106, 109, 103
103, 109, 123, 125
120, 99, 99, 114
105, 83, 114, 102
95, 111, 81, 109
110, 106, 107, 103
117, 97, 104, 115
122, 132, 99, 111
109, 105, 91, 118
113, 99, 100, 113
100, 104, 102, 117
99, 105, 96, 116
96, 113, 91, 118
85, 117, 136, 94
91, 115, 90, 114
97, 112, 115, 96
110, 130, 122, 120
116, 120, 125, 86
102, 109, 97, 104
125, 115, 106, 108
124, 107, 124, 112
110, 105, 110, 127
98, 105, 137, 122
110, 104, 113, 103
119, 106, 105, 133
101, 109, 104, 113
116, 138, 104, 104
116, 114, 96, 107
112, 121, 107, 104
104, 114, 108, 118
122, 125, 116, 110
117, 102, 119, 115
110, 100, 124, 110
102, 96, 95, 106
100, 101, 117, 91
94, 105, 95, 105
111, 93, 131, 129
100, 106, 94, 111
124, 121, 118, 125
100, 108, 117, 120
94, 111, 118, 112
110, 100, 110, 111
115, 118, 123, 98
111, 93, 97, 109
124, 120, 123, 123
96, 99, 101, 95
108, 115, 110, 113
126, 110, 118, 111
100, 97, 112, 121
132, 108, 114, 117
123, 119, 117, 101
115, 111, 121, 106
130, 117, 127, 139
111, 93, 113, 96
105, 101, 98, 129
107, 93, 96, 97
106, 132, 122, 122
114, 117, 104, 127
116, 116, 113, 113
122, 111, 73, 101
111, 106, 93, 102
94, 108, 100, 105
110, 105, 111, 134
106, 96, 108, 99
106, 107, 109, 123
106, 104, 115, 105
125, 96, 110, 114
111, 100, 109, 121
113, 97, 109, 109
108, 97, 109, 103
113, 108, 121, 119
103, 119, 103, 94
109, 108, 118, 122
102, 115, 125, 94
108, 121, 104, 113
92, 112, 105, 123
105, 119, 126, 102
105, 108, 108, 125
100, 107, 109, 104
101, 95, 104, 97
128, 96, 84, 91
126, 124, 100, 99
102, 106, 107, 88
110, 134, 110, 108
96, 87, 113, 113
112, 124, 125, 109
94, 114, 109, 103
109, 104, 104, 101
112, 99, 117, 114
126, 120, 114, 118
113, 125, 87, 104
108, 111, 103, 97
120, 106, 123, 114
112, 121, 117, 108
104, 115, 116, 94
127, 90, 102, 107
95, 111, 105, 120
113, 124, 104, 119
89, 97, 123, 120
122, 110, 112, 102
92, 95, 111, 89
125, 107, 127, 100
127, 117, 105, 136
119, 102, 106, 110
119, 99, 112, 102
124, 111, 101, 123
108, 100, 110, 106
115, 97, 99, 110
116, 124, 113, 105
101, 95, 118, 113
115, 99, 107, 108
112, 116, 120, 124
106, 127, 101, 111
108, 122, 122, 107
109, 109, 111, 101
104, 106, 94, 96
116, 111, 117, 121
123, 106, 116, 103
112, 108, 110, 104
123, 109, 119, 118
134, 115, 99, 126
108, 134, 106, 96
116, 120, 115, 110
109, 96, 108, 112
100, 119, 114, 109
97, 128, 100, 116
112, 122, 109, 108
126, 114, 104, 113
106, 118, 124, 104
122, 99, 129, 111
111, 110, 117, 116
113, 109, 123, 99
110, 107, 107, 126
123, 101, 113, 102
119, 110, 119, 99
134, 124, 121, 110
114, 115, 118, 146
104, 112, 104, 103
99, 110, 102, 108
118, 110, 123, 106
102, 118, 110, 107
112, 112, 106, 108
98, 86, 122, 116
129, 96, 125, 126
131, 109, 118, 103
105, 104, 125, 110
113, 106, 107, 106
94, 112, 106, 85
101, 104, 102, 125
100, 110, 112, 125
111, 98, 111, 117
116, 112, 114, 112
132, 109, 107, 96
120, 103, 122, 93
122, 91, 114, 112
144, 106, 107, 115
111, 102, 118, 113
135, 104, 97, 93
120, 116, 107, 112
95, 128, 104, 104
133, 96, 115, 116
131, 103, 116, 114
109, 107, 113, 121
99, 131, 117, 137
115, 116, 99, 132
109, 122, 124, 108
118, 96, 91, 109
121, 120, 106, 114
103, 122, 102, 97
117, 114, 100, 113
122, 127, 101, 104
120, 104, 110, 106
116, 107, 102, 111
102, 125, 107, 106
108, 110, 119, 93
135, 110, 121, 114
95, 134, 101, 116
99, 108, 98, 99
101, 113, 121, 122
103, 119, 115, 102
98, 112, 101, 101
127, 109, 111, 119
116, 92, 121, 113
113, 108, 113, 96
115, 95, 124, 118
116, 110, 115, 112
122, 120, 120, 125
100, 107, 119, 116
108, 122, 112, 122
113, 112, 121, 106
112, 111, 123, 114
118, 124, 113, 125
112, 106, 107, 117
124, 124, 115, 113
116, 126, 104, 118
98, 82, 120, 123
126, 120, 116, 134
100, 117, 105, 128
129, 128, 105, 127
116, 124, 141, 129
133, 126, 141, 134
123, 150, 123, 127
147, 124, 120, 115
140, 123, 133, 138
183, 181, 174, 188
294, 270, 277, 302
296, 270, 308, 318
245, 213, 237, 206
141, 166, 171, 163
112, 130, 151, 133
120, 115, 133, 137
119, 142, 116, 123
111, 139, 111, 121
108, 142, 109, 119
105, 117, 124, 96
128, 136, 109, 107
120, 124, 118, 108
114, 111, 124, 124
99, 125, 104, 118
124, 126, 111, 110
107, 126, 116, 109
124, 115, 135, 127
114, 99, 121, 130
113, 114, 116, 109
123, 107, 105, 102
135, 124, 127, 121
117, 96, 114, 110
122, 128, 105, 99
108, 112, 119, 130
117, 123, 131, 121
115, 115, 110, 118
125, 126, 132, 132
124, 130, 130, 126
120, 160, 127, 128
112, 141, 120, 110
123, 119, 118, 123
106, 118, 102, 120
104, 124, 121, 111
101, 123, 114, 94
124, 127, 128, 122
119, 147, 111, 115
123, 125, 116, 116
99, 137, 127, 106
112, 121, 110, 114
122, 136, 113, 134
120, 121, 125, 137
140, 131, 101, 116
116, 124, 109, 144
136, 119, 123, 139
125, 130, 125, 112
127, 127, 137, 133
134, 145, 135, 121
123, 129, 142, 154
129, 147, 136, 137
138, 120, 119, 135
156, 136, 134, 138
126, 142, 144, 130
133, 161, 146, 133
143, 136, 144, 162
153, 177, 173, 197
267, 281, 294, 315
360, 373, 400, 359
421, 400, 394, 381
278, 270, 245, 257
194, 197, 202, 192
179, 170, 170, 146
163, 189, 139, 140
185, 152, 173, 179
202, 196, 182, 194
224, 232, 185, 197
193, 180, 172, 196
170, 175, 162, 180
163, 174, 172, 193
185, 179, 175, 179
156, 171, 170, 170
198, 162, 170, 177
167, 176, 176, 177
182, 183, 171, 203
185, 164, 178, 173
166, 182, 179, 174
224, 203, 179, 183
203, 196, 191, 204
174, 197, 202, 197
201, 189, 187, 176
202, 208, 186, 200
192, 211, 209, 205
219, 222, 196, 208
227, 206, 214, 228
213, 203, 199, 203
220, 216, 230, 229
196, 248, 230, 243
237, 249, 264, 246
256, 246, 274, 241
256, 266, 263, 262
266, 251, 264, 269
290, 270, 268, 288
335, 327, 335, 316
345, 371, 346, 330
429, 406, 431, 482
623, 630, 703, 736
934, 916, 930, 968
1127, 1040, 1107, 1186
1551, 1667, 1782, 2082
5198, 7166, 10388, 14914
36702.7, 39224.3, 41092.1, 44874.5
43707.1, 36609.4, 37776.7, 35348.6
31939.8, 33807.6, 34975, 35955.6
31005.9, 30025.3, 27503.7, 24748.7
18631.5, 19191.9, 16156.7, 15176.1
10764, 9906, 8601, 7550
3421, 3036, 2596, 2249
1214, 1094, 994, 924
714, 680, 667, 615
523, 502, 510, 471
398, 389, 426, 371
381, 360, 340, 377
311, 345, 338, 334
281, 288, 295, 287
284, 285, 251, 275
249, 288, 256, 262
228, 239, 253, 244
257, 236, 250, 236
218, 225, 218, 226
192, 201, 221, 224
201, 221, 237, 211
186, 208, 191, 196
194, 208, 196, 209
166, 195, 178, 192
200, 178, 177, 216
206, 172, 178, 197
185, 197, 168, 181
182, 202, 188, 205
202, 174, 216, 208
234, 250, 271, 255
361, 398, 445, 506
760, 761, 867, 849
1034, 1025, 1125, 1090
1404, 1369, 1490, 1481
1745, 1771, 1768, 1787
1225, 1097, 963, 864
747, 795, 810, 784
778, 765, 708, 704
318, 303, 275, 218
173, 173, 177, 164
153, 194, 151, 180
161, 156, 139, 135
168, 140, 166, 162
163, 158, 128, 119
132, 140, 151, 121
150, 130, 146, 142
138, 138, 142, 141
138, 145, 139, 139
140, 120, 139, 149
144, 158, 113, 151
126, 147, 125, 124
124, 130, 141, 136
134, 120, 133, 147
128, 114, 127, 117
122, 140, 131, 137
143, 122, 150, 123
115, 139, 115, 145
113, 127, 131, 127
129, 144, 114, 125
138, 114, 142, 124
123, 131, 139, 125
121, 124, 115, 133
130, 135, 116, 125
134, 136, 126, 122
118, 119, 111, 111
143, 106, 111, 127
133, 123, 136, 133
132, 114, 129, 125
108, 128, 125, 108
133, 141, 136, 130
134, 124, 122, 139
118, 109, 135, 119
102, 109, 133, 115
125, 125, 114, 124
122, 140, 122, 134
105, 117, 130, 124
131, 125, 125, 110
113, 136, 117, 109
118, 131, 116, 117
129, 125, 125, 123
139, 104, 126, 120
118, 121, 135, 115
132, 128, 110, 129
111, 118, 115, 127
151, 127, 142, 126
128, 124, 141, 124
126, 127, 133, 137
110, 132, 116, 136
121, 130, 135, 137
158, 190, 183, 205
191
*END

*EOF