File: XRD-20251211/2-1_2-Theta_Omega.asc
*TYPE		=  Raw
*CLASS		=  ASCII CLASS
*SAMPLE		=
*COMMENT	=
*FNAME		=  1-9_2-Theta_Omega.asc
*DATE		=  11-Dec-25 15:57

*GROUP_COUNT	=  1
*GONIO		=  SmartLab(In-plane), 0.000000
*ATTACHMENT	=  Z-Phi Stage
*ASC		=  0, 0, 0.000000, 0.000000
*I_MONOCHRO	=  Soller_slit_5.0deg, 0.000000
*FILTER		=  None
*C_MONOCHRO	=  None, 0.000000
*SLIT_NAME	=  0, Incident slit
*SLIT_NAME	=  1, Receiving slit # 1
*SLIT_NAME	=  2, Receiving slit # 2
*COUNTER	=  SC-70, 0
*POS_FORMAT	=  0
*SCAN_AXIS	=  2Theta/Omega
*MEAS_MODE	=  Continuous Scanning
*TARGET		=  29
*XRAY_CHAR	=  K-ALPHA
*WAVE_LENGTH1	=  1.54059
*WAVE_LENGTH2	=  1.54441
*THICKNESS	=  0, 0.000000
*MU		=  0, 0.000000
*SCAN_MODE	=  2Theta/Omega
*SPEED_DIM	=  sec./step
*XUNIT		=  deg.
*YUNIT		=  counts
*SCALE_MODE	=  1
*REP_COUNT	=  0
*SE_COUNT	=  0
*STD_MATERIAL	=  Unknown, Unknown, 0.000000, 0.000000, 0.000000, 0.000000, 0.000000, 0.000000
*LATT_CONS	=  0, Unknown, Unknown, 0.000000, 0.000000, 0.000000, 0.000000, 0.000000, 0.000000
*SEC_COUNT	=  1
*TSPEC_SIZE	=  0
*EXTRA_SIZE	=  0
*MEMO		=

*BEGIN
*GROUP		=  0
*START		=  20
*STOP		=  80
*STEP		=  0.01
*OFFSET		=  0.000000
*SPEED		=  0.05
*SLIT_SPEC	=  0, 1.000mm, 1, 0.000000
*SLIT_SPEC	=  1, 1.000mm, 1, 0.000000
*SLIT_SPEC	=  2, 1.000mm, 1, 0.000000
*KV		=  40
*MA		=  100
*LOW		=  0.000000
*HIGH		=  0.000000
*CTEMPER	=  0, 0.000000
*CTEMPER	=  1, 0.000000
*CTEMPER	=  2, 0.000000
*PAREX		=  0, 0.000000
*PAREX		=  1, 0.000000
*PAREX		=  2, 0.000000
*PAREX		=  3, 0.000000
*PAREX		=  4, 0.000000
*PAREX		=  5, 0.000000
*PAREX		=  6, 0.000000
*PAREX		=  7, 0.000000
*PAREX		=  8, 0.000000
*PAREX		=  9, 0.000000
*PAREX		=  10, 0.000000
*PAREX		=  11, 0.000000
*PAREX		=  12, 0.000000
*PAREX		=  13, 0.000000
*PAREX		=  14, 0.000000
*PAREX		=  15, 0.000000
*FULL_SCALE	=  257352
*INDEX		=  0, 0, 0
*COUNT		=  6001
107, 104, 104, 108
98, 113, 105, 103
105, 115, 98, 102
136, 118, 113, 117
116, 130, 130, 101
150, 127, 136, 128
111, 115, 126, 114
107, 121, 109, 133
120, 133, 113, 111
109, 100, 104, 128
122, 111, 115, 126
107, 112, 106, 104
115, 108, 145, 113
117, 106, 126, 108
113, 112, 122, 108
117, 115, 107, 139
116, 121, 107, 121
118, 113, 110, 115
111, 119, 119, 126
107, 110, 101, 126
118, 106, 108, 103
122, 134, 113, 121
107, 107, 123, 130
115, 107, 121, 95
102, 126, 105, 95
122, 106, 112, 103
115, 106, 131, 97
128, 107, 113, 132
111, 117, 108, 98
108, 108, 100, 120
122, 119, 101, 131
107, 127, 133, 104
109, 128, 109, 107
110, 110, 112, 111
124, 107, 102, 109
118, 112, 115, 133
127, 110, 120, 121
115, 108, 117, 107
132, 97, 88, 106
119, 100, 102, 119
107, 129, 107, 98
99, 136, 98, 108
111, 111, 125, 124
112, 114, 110, 98
114, 104, 99, 118
111, 99, 125, 102
119, 103, 95, 105
119, 101, 106, 114
114, 125, 115, 123
127, 101, 111, 108
110, 98, 109, 129
125, 109, 116, 99
134, 116, 117, 110
97, 101, 111, 104
99, 103, 108, 146
111, 105, 106, 116
103, 106, 132, 114
103, 109, 90, 118
123, 89, 103, 109
106, 120, 98, 106
114, 102, 117, 121
109, 113, 96, 132
122, 110, 118, 105
100, 101, 106, 122
130, 120, 108, 125
115, 113, 110, 126
113, 106, 129, 105
116, 107, 103, 107
101, 103, 105, 100
111, 92, 115, 105
103, 107, 136, 120
110, 112, 109, 146
122, 116, 113, 96
110, 103, 118, 106
105, 106, 114, 100
126, 125, 114, 104
104, 120, 110, 115
96, 112, 111, 105
125, 115, 106, 129
115, 123, 118, 120
100, 102, 111, 130
97, 124, 125, 124
112, 109, 88, 119
96, 142, 127, 115
123, 137, 104, 118
89, 115, 121, 118
126, 116, 111, 114
133, 129, 95, 114
103, 99, 88, 135
127, 113, 118, 121
101, 112, 131, 95
123, 118, 116, 102
125, 133, 123, 116
120, 129, 134, 138
101, 125, 99, 124
106, 107, 119, 116
102, 120, 104, 106
141, 116, 104, 112
127, 129, 113, 97
113, 102, 101, 110
110, 111, 121, 132
129, 111, 82, 131
110, 125, 114, 119
98, 110, 97, 120
115, 110, 88, 134
119, 104, 124, 104
109, 109, 110, 107
119, 124, 119, 114
122, 114, 114, 109
108, 128, 114, 110
106, 121, 133, 120
130, 106, 107, 105
101, 127, 133, 92
94, 108, 102, 92
98, 107, 115, 95
124, 120, 115, 112
107, 110, 118, 112
113, 129, 111, 137
101, 102, 103, 96
121, 121, 118, 112
116, 124, 120, 105
140, 131, 128, 137
114, 125, 117, 119
106, 138, 117, 114
103, 136, 110, 116
111, 124, 112, 115
113, 130, 114, 134
102, 112, 100, 127
120, 116, 106, 124
113, 121, 122, 115
106, 122, 118, 107
112, 100, 110, 112
124, 111, 115, 117
97, 99, 124, 131
87, 106, 122, 127
129, 127, 121, 106
109, 118, 112, 95
115, 127, 110, 117
120, 101, 131, 117
124, 119, 109, 96
106, 117, 111, 115
113, 126, 113, 99
142, 99, 115, 106
115, 98, 103, 124
132, 115, 111, 119
124, 129, 96, 117
109, 113, 117, 119
109, 107, 110, 122
104, 128, 99, 110
114, 138, 118, 109
112, 97, 123, 103
117, 113, 124, 112
115, 122, 117, 117
107, 118, 111, 149
129, 127, 129, 117
101, 115, 112, 112
100, 102, 104, 114
96, 143, 123, 111
116, 117, 131, 99
127, 105, 102, 120
125, 106, 125, 110
124, 135, 88, 124
103, 108, 122, 118
102, 117, 121, 117
115, 128, 124, 128
109, 103, 99, 127
113, 111, 124, 100
116, 90, 128, 97
114, 109, 116, 120
127, 132, 114, 115
117, 135, 131, 97
132, 134, 134, 118
113, 117, 120, 129
111, 140, 125, 121
106, 111, 120, 124
111, 116, 123, 123
110, 134, 123, 102
122, 140, 121, 116
131, 135, 121, 137
104, 125, 101, 122
116, 92, 127, 141
110, 115, 136, 106
129, 144, 123, 129
109, 119, 101, 108
122, 130, 108, 121
129, 117, 101, 105
105, 121, 139, 99
109, 118, 112, 121
117, 120, 108, 134
122, 121, 128, 121
119, 124, 104, 97
125, 107, 117, 124
127, 90, 125, 129
123, 134, 116, 135
116, 135, 96, 114
124, 119, 116, 113
116, 141, 125, 118
127, 119, 137, 119
116, 119, 119, 130
120, 132, 110, 131
108, 128, 111, 133
106, 119, 109, 126
113, 108, 120, 111
102, 107, 106, 118
109, 123, 124, 91
126, 120, 134, 114
115, 105, 107, 132
98, 123, 128, 108
120, 129, 110, 97
104, 100, 122, 115
133, 129, 106, 113
136, 129, 115, 105
134, 110, 134, 126
113, 109, 110, 106
122, 118, 106, 104
140, 135, 112, 132
120, 116, 143, 115
119, 140, 135, 141
126, 139, 141, 108
121, 141, 158, 143
116, 128, 134, 108
118, 112, 129, 143
120, 123, 133, 114
138, 95, 125, 151
124, 101, 117, 129
123, 116, 128, 127
124, 119, 96, 148
112, 126, 136, 106
107, 115, 117, 118
101, 130, 115, 109
116, 134, 131, 152
111, 110, 130, 131
129, 111, 105, 102
110, 127, 118, 130
119, 119, 133, 119
129, 117, 99, 111
122, 130, 135, 113
110, 136, 110, 123
134, 129, 138, 129
116, 101, 110, 127
113, 116, 114, 118
142, 118, 131, 132
132, 140, 144, 132
154, 140, 168, 173
160, 177, 157, 177
138, 171, 148, 147
148, 143, 132, 127
132, 142, 154, 142
126, 120, 153, 165
153, 146, 161, 167
133, 138, 152, 143
147, 136, 120, 141
123, 141, 133, 160
129, 143, 146, 139
133, 139, 135, 128
138, 116, 150, 146
134, 130, 118, 106
114, 123, 134, 148
126, 122, 128, 117
132, 154, 120, 132
130, 148, 135, 151
125, 131, 161, 143
140, 138, 140, 162
133, 153, 130, 138
139, 149, 152, 136
170, 157, 151, 150
182, 184, 219, 200
202, 227, 246, 216
411, 566, 888, 1741
6421, 5427, 4401, 3328
3580, 4140, 4248, 3932
1455, 1458, 1272, 1380
2668, 2416, 2052, 1532
892, 1117, 1262, 1307
504, 404, 396, 339
288, 267, 309, 259
235, 238, 240, 241
182, 184, 203, 189
182, 205, 180, 210
169, 188, 192, 168
185, 172, 153, 159
179, 184, 169, 154
207, 181, 177, 162
177, 155, 148, 171
165, 156, 161, 188
177, 182, 165, 174
164, 172, 175, 164
182, 196, 166, 190
171, 156, 172, 181
185, 184, 194, 183
181, 173, 159, 182
197, 198, 211, 173
192, 191, 164, 199
182, 217, 177, 207
172, 212, 227, 228
268, 264, 291, 310
405, 419, 449, 439
792, 994, 1293, 1464
4103, 4983, 6195, 6992
9845, 9822, 10001, 10234
10405, 9959, 9423, 8943
6671, 6235, 5996, 5679
3478, 2843, 2361, 1942
1326, 1240, 1135, 1005
473, 477, 420, 438
349, 307, 311, 347
288, 283, 246, 263
202, 199, 188, 221
173, 193, 160, 175
170, 183, 187, 154
165, 159, 181, 147
162, 155, 159, 133
135, 159, 131, 133
150, 136, 143, 116
143, 140, 141, 148
131, 143, 134, 139
149, 124, 138, 139
141, 138, 121, 117
131, 123, 144, 118
144, 149, 130, 142
122, 144, 119, 145
122, 124, 131, 143
118, 110, 154, 135
133, 130, 122, 114
126, 128, 144, 123
123, 136, 150, 126
116, 120, 129, 128
131, 118, 112, 128
133, 134, 111, 130
131, 144, 119, 120
111, 131, 116, 124
102, 136, 127, 131
122, 103, 123, 130
96, 125, 123, 118
125, 155, 128, 107
121, 106, 111, 136
145, 119, 138, 140
142, 103, 125, 127
110, 128, 130, 142
102, 114, 100, 123
114, 91, 129, 124
156, 124, 125, 129
133, 134, 128, 117
129, 130, 124, 121
135, 133, 123, 147
129, 136, 139, 127
123, 126, 132, 100
124, 121, 137, 116
122, 127, 115, 140
117, 144, 126, 123
128, 132, 136, 125
123, 142, 127, 110
128, 135, 136, 114
104, 135, 109, 133
128, 110, 122, 124
138, 136, 136, 122
134, 104, 142, 133
108, 125, 135, 109
125, 139, 118, 115
127, 120, 137, 128
130, 128, 118, 122
143, 125, 133, 122
135, 120, 117, 125
132, 115, 127, 129
149, 114, 123, 138
129, 127, 124, 118
121, 112, 117, 130
127, 106, 131, 122
114, 121, 123, 141
128, 124, 112, 135
126, 138, 130, 118
127, 111, 124, 109
115, 119, 114, 125
135, 136, 122, 123
118, 113, 131, 153
135, 125, 109, 123
146, 144, 130, 94
137, 133, 120, 120
125, 110, 130, 121
135, 137, 136, 103
126, 121, 112, 108
134, 127, 126, 148
122, 156, 131, 123
137, 118, 119, 109
109, 126, 123, 137
129, 117, 141, 125
134, 143, 141, 115
117, 124, 131, 139
137, 138, 140, 122
118, 126, 118, 144
124, 134, 116, 121
116, 145, 132, 139
128, 125, 138, 123
112, 146, 133, 139
119, 121, 120, 116
109, 133, 140, 127
110, 118, 117, 112
102, 122, 121, 133
138, 123, 135, 126
127, 132, 125, 128
133, 134, 119, 143
120, 149, 141, 142
151, 116, 117, 132
137, 155, 113, 127
119, 122, 123, 111
143, 129, 121, 133
127, 136, 124, 135
143, 124, 132, 128
116, 133, 125, 145
147, 120, 113, 112
118, 121, 126, 114
128, 136, 111, 122
125, 125, 122, 117
127, 144, 126, 119
120, 129, 133, 147
122, 123, 121, 136
149, 129, 135, 124
121, 125, 146, 142
122, 131, 132, 118
122, 116, 131, 118
122, 121, 106, 140
138, 106, 141, 135
120, 119, 122, 121
123, 125, 155, 122
132, 125, 94, 140
119, 134, 142, 145
108, 123, 138, 129
125, 144, 120, 149
118, 122, 136, 119
135, 132, 125, 137
122, 118, 132, 140
118, 130, 103, 114
121, 124, 131, 135
124, 121, 136, 116
110, 126, 136, 116
130, 105, 117, 121
125, 118, 131, 143
125, 132, 123, 124
118, 121, 107, 126
146, 110, 136, 135
132, 114, 133, 112
125, 106, 118, 126
134, 123, 127, 110
120, 109, 124, 113
126, 115, 138, 145
117, 134, 150, 111
132, 128, 145, 135
152, 124, 126, 120
120, 129, 142, 127
117, 124, 120, 137
107, 127, 134, 117
119, 116, 119, 118
130, 124, 130, 122
129, 115, 113, 127
130, 124, 133, 103
119, 155, 134, 125
121, 127, 121, 117
131, 130, 143, 134
127, 123, 130, 139
127, 123, 138, 138
130, 118, 107, 115
114, 102, 144, 145
139, 128, 111, 121
135, 128, 106, 139
110, 143, 130, 119
130, 131, 120, 132
129, 122, 128, 131
153, 134, 134, 112
123, 113, 125, 134
116, 129, 128, 121
109, 124, 114, 116
111, 131, 109, 120
137, 143, 129, 129
115, 133, 136, 121
134, 109, 122, 125
129, 110, 132, 127
126, 127, 130, 131
156, 133, 148, 134
124, 106, 123, 134
129, 130, 138, 133
136, 139, 138, 143
125, 126, 126, 133
130, 134, 144, 130
110, 139, 141, 142
141, 115, 120, 113
135, 118, 133, 125
122, 135, 120, 114
141, 130, 133, 116
140, 127, 105, 130
118, 101, 119, 142
125, 129, 139, 121
105, 126, 119, 124
136, 126, 133, 133
110, 133, 144, 123
120, 126, 136, 140
126, 121, 137, 149
126, 124, 128, 104
123, 111, 123, 129
116, 128, 119, 118
100, 124, 130, 126
115, 122, 106, 142
141, 120, 125, 138
120, 118, 133, 160
121, 117, 110, 129
115, 129, 131, 112
150, 112, 130, 103
137, 149, 122, 126
114, 126, 128, 107
132, 130, 131, 121
145, 132, 127, 126
126, 140, 123, 109
115, 119, 135, 113
118, 135, 121, 135
121, 124, 134, 113
126, 127, 129, 117
142, 142, 140, 136
113, 112, 123, 110
128, 119, 109, 129
121, 116, 118, 138
109, 134, 108, 122
124, 128, 120, 129
127, 114, 143, 142
116, 126, 114, 129
143, 109, 100, 125
118, 123, 126, 124
125, 118, 123, 117
133, 117, 132, 118
134, 123, 133, 136
116, 117, 126, 140
112, 133, 143, 123
132, 116, 125, 122
119, 124, 143, 114
112, 129, 113, 126
115, 118, 118, 132
107, 124, 137, 142
147, 134, 109, 107
139, 120, 130, 127
131, 130, 125, 101
144, 153, 131, 130
144, 140, 137, 125
139, 134, 121, 127
157, 122, 144, 131
140, 116, 117, 130
120, 130, 113, 131
129, 134, 116, 140
148, 123, 129, 128
105, 165, 135, 137
125, 123, 127, 112
99, 138, 137, 132
127, 141, 127, 120
134, 128, 140, 109
128, 147, 117, 129
126, 152, 122, 145
122, 131, 133, 132
141, 137, 129, 132
131, 150, 157, 122
140, 151, 138, 139
140, 132, 144, 123
133, 156, 145, 148
136, 118, 114, 138
120, 114, 123, 129
145, 130, 144, 122
115, 139, 128, 139
114, 111, 132, 122
109, 117, 127, 130
126, 129, 128, 112
125, 121, 103, 121
116, 110, 130, 137
125, 156, 107, 102
131, 121, 127, 134
112, 110, 136, 128
136, 130, 116, 117
113, 129, 124, 121
117, 117, 117, 124
118, 124, 137, 125
125, 110, 136, 123
127, 125, 126, 139
127, 106, 119, 147
145, 134, 141, 124
105, 126, 122, 89
142, 131, 124, 134
129, 129, 111, 134
123, 124, 133, 105
124, 142, 121, 112
129, 128, 127, 127
129, 113, 110, 134
138, 118, 127, 123
124, 135, 139, 150
124, 135, 131, 124
123, 125, 137, 162
143, 150, 118, 128
118, 111, 118, 125
126, 125, 136, 123
134, 108, 135, 119
134, 122, 138, 123
132, 134, 129, 117
142, 105, 123, 145
108, 110, 121, 138
105, 109, 146, 103
129, 156, 122, 115
121, 131, 144, 124
106, 121, 120, 127
124, 116, 118, 138
157, 123, 146, 115
117, 124, 125, 132
118, 138, 123, 132
117, 134, 128, 145
122, 131, 108, 129
126, 129, 125, 154
123, 131, 125, 107
132, 129, 146, 113
99, 130, 129, 142
119, 122, 115, 120
103, 127, 136, 112
122, 107, 146, 119
135, 112, 137, 118
141, 120, 99, 124
113, 115, 138, 116
120, 133, 141, 120
93, 117, 112, 104
133, 129, 133, 129
134, 146, 129, 152
121, 116, 123, 118
120, 147, 128, 117
140, 127, 134, 119
130, 145, 140, 115
136, 147, 141, 118
134, 160, 110, 113
118, 136, 136, 112
123, 112, 145, 148
124, 121, 123, 128
135, 122, 125, 136
130, 133, 112, 107
128, 133, 157, 119
90, 120, 127, 139
111, 124, 124, 117
127, 125, 115, 150
97, 122, 133, 127
119, 113, 136, 114
122, 127, 129, 130
143, 108, 127, 136
127, 136, 138, 118
134, 132, 114, 141
114, 131, 121, 138
129, 150, 139, 151
132, 129, 145, 126
143, 126, 138, 136
148, 140, 132, 144
116, 124, 144, 159
140, 113, 140, 128
115, 133, 106, 122
111, 109, 111, 127
124, 112, 111, 134
131, 125, 137, 127
129, 143, 107, 118
134, 142, 125, 139
105, 128, 141, 117
127, 127, 134, 124
139, 124, 130, 127
123, 147, 119, 137
106, 128, 140, 119
135, 123, 107, 134
136, 132, 133, 133
139, 134, 139, 108
132, 132, 136, 126
125, 120, 125, 126
127, 135, 128, 130
145, 143, 123, 146
119, 111, 147, 145
140, 138, 114, 135
134, 140, 126, 137
117, 122, 130, 141
124, 138, 126, 126
122, 133, 139, 114
138, 146, 132, 123
131, 114, 125, 151
133, 130, 124, 169
121, 144, 130, 117
137, 123, 131, 133
127, 127, 146, 116
150, 137, 146, 123
117, 137, 136, 149
135, 133, 142, 138
153, 120, 159, 135
129, 130, 147, 142
140, 148, 173, 156
151, 162, 162, 146
158, 171, 159, 169
201, 194, 223, 223
298, 402, 365, 436
609, 735, 753, 908
1275, 1476, 1420, 1469
1447, 1354, 1398, 1228
1153, 1205, 1178, 1159
957, 905, 852, 861
691, 635, 633, 630
407, 440, 369, 369
205, 218, 189, 164
134, 183, 162, 154
165, 133, 151, 148
130, 140, 137, 127
138, 138, 142, 136
152, 134, 151, 146
159, 137, 132, 112
155, 145, 125, 117
149, 124, 147, 163
136, 133, 129, 148
144, 130, 111, 123
131, 140, 117, 138
119, 136, 140, 134
150, 154, 141, 143
122, 121, 133, 154
135, 115, 131, 144
148, 116, 124, 132
131, 147, 137, 146
149, 136, 133, 120
133, 136, 149, 141
135, 118, 124, 135
129, 136, 124, 135
139, 123, 122, 126
158, 144, 155, 126
117, 121, 136, 142
127, 143, 145, 122
130, 126, 151, 147
131, 120, 108, 162
122, 124, 124, 122
102, 129, 140, 133
118, 134, 115, 140
126, 140, 138, 128
140, 136, 126, 132
120, 144, 131, 134
137, 131, 133, 141
123, 122, 127, 160
127, 119, 126, 135
144, 133, 123, 125
142, 122, 125, 127
119, 136, 117, 126
122, 140, 112, 129
149, 130, 130, 135
132, 103, 120, 131
128, 126, 125, 129
131, 154, 132, 113
127, 133, 153, 165
125, 138, 141, 140
126, 106, 132, 110
144, 150, 138, 147
125, 134, 125, 139
119, 157, 144, 149
160, 186, 172, 181
165, 157, 164, 165
167
*END

*EOF