File: XRD-20251211/2-2_2-Theta_Omega.asc
*TYPE		=  Raw
*CLASS		=  ASCII CLASS
*SAMPLE		=
*COMMENT	=
*FNAME		=  2-2_2-Theta_Omega.asc
*DATE		=  11-Dec-25 16:05

*GROUP_COUNT	=  1
*GONIO		=  SmartLab(In-plane), 0.000000
*ATTACHMENT	=  Z-Phi Stage
*ASC		=  0, 0, 0.000000, 0.000000
*I_MONOCHRO	=  Soller_slit_5.0deg, 0.000000
*FILTER		=  None
*C_MONOCHRO	=  None, 0.000000
*SLIT_NAME	=  0, Incident slit
*SLIT_NAME	=  1, Receiving slit # 1
*SLIT_NAME	=  2, Receiving slit # 2
*COUNTER	=  SC-70, 0
*POS_FORMAT	=  0
*SCAN_AXIS	=  2Theta/Omega
*MEAS_MODE	=  Continuous Scanning
*TARGET		=  29
*XRAY_CHAR	=  K-ALPHA
*WAVE_LENGTH1	=  1.54059
*WAVE_LENGTH2	=  1.54441
*THICKNESS	=  0, 0.000000
*MU		=  0, 0.000000
*SCAN_MODE	=  2Theta/Omega
*SPEED_DIM	=  sec./step
*XUNIT		=  deg.
*YUNIT		=  counts
*SCALE_MODE	=  1
*REP_COUNT	=  0
*SE_COUNT	=  0
*STD_MATERIAL	=  Unknown, Unknown, 0.000000, 0.000000, 0.000000, 0.000000, 0.000000, 0.000000
*LATT_CONS	=  0, Unknown, Unknown, 0.000000, 0.000000, 0.000000, 0.000000, 0.000000, 0.000000
*SEC_COUNT	=  1
*TSPEC_SIZE	=  0
*EXTRA_SIZE	=  0
*MEMO		=

*BEGIN
*GROUP		=  0
*START		=  20
*STOP		=  80
*STEP		=  0.01
*OFFSET		=  0.000000
*SPEED		=  0.05
*SLIT_SPEC	=  0, 1.000mm, 1, 0.000000
*SLIT_SPEC	=  1, 1.000mm, 1, 0.000000
*SLIT_SPEC	=  2, 1.000mm, 1, 0.000000
*KV		=  40
*MA		=  100
*LOW		=  0.000000
*HIGH		=  0.000000
*CTEMPER	=  0, 0.000000
*CTEMPER	=  1, 0.000000
*CTEMPER	=  2, 0.000000
*PAREX		=  0, 0.000000
*PAREX		=  1, 0.000000
*PAREX		=  2, 0.000000
*PAREX		=  3, 0.000000
*PAREX		=  4, 0.000000
*PAREX		=  5, 0.000000
*PAREX		=  6, 0.000000
*PAREX		=  7, 0.000000
*PAREX		=  8, 0.000000
*PAREX		=  9, 0.000000
*PAREX		=  10, 0.000000
*PAREX		=  11, 0.000000
*PAREX		=  12, 0.000000
*PAREX		=  13, 0.000000
*PAREX		=  14, 0.000000
*PAREX		=  15, 0.000000
*FULL_SCALE	=  760952
*INDEX		=  0, 0, 0
*COUNT		=  6001
101, 107, 79, 98
82, 115, 108, 120
103, 126, 92, 101
117, 108, 111, 121
112, 93, 107, 95
103, 116, 112, 113
116, 121, 112, 129
175, 169, 153, 153
160, 109, 125, 105
120, 112, 110, 115
106, 108, 125, 103
89, 108, 106, 94
114, 101, 92, 134
101, 98, 114, 112
95, 105, 105, 92
106, 126, 104, 94
113, 94, 95, 117
118, 126, 101, 115
101, 118, 126, 122
117, 111, 113, 111
106, 121, 105, 117
125, 80, 110, 118
110, 97, 109, 94
123, 104, 96, 113
98, 104, 118, 88
114, 90, 114, 116
135, 88, 103, 102
106, 103, 115, 101
111, 103, 109, 115
92, 108, 115, 104
109, 108, 91, 110
119, 155, 111, 126
122, 117, 82, 103
114, 129, 120, 129
111, 104, 120, 118
92, 114, 124, 107
103, 104, 120, 92
103, 93, 87, 116
97, 108, 126, 99
112, 111, 111, 101
130, 103, 119, 98
114, 97, 107, 120
110, 112, 106, 93
96, 108, 108, 112
82, 89, 120, 116
108, 113, 111, 131
99, 96, 122, 97
107, 120, 89, 106
111, 122, 119, 110
77, 115, 107, 77
99, 100, 119, 119
106, 123, 102, 109
137, 117, 119, 100
114, 114, 117, 106
103, 118, 105, 88
96, 114, 99, 95
90, 102, 108, 123
110, 99, 124, 123
104, 100, 115, 108
102, 123, 112, 116
104, 97, 100, 107
104, 109, 119, 112
97, 98, 111, 123
104, 106, 116, 111
111, 121, 107, 116
96, 106, 127, 94
112, 87, 97, 108
94, 111, 75, 103
106, 102, 113, 125
103, 104, 91, 104
108, 128, 85, 112
115, 114, 112, 123
123, 95, 120, 109
110, 102, 90, 90
87, 115, 101, 112
96, 85, 111, 103
122, 103, 100, 114
120, 112, 112, 113
104, 108, 105, 121
102, 110, 122, 111
112, 88, 104, 113
90, 109, 112, 114
127, 118, 102, 94
95, 95, 104, 120
102, 122, 107, 102
101, 106, 98, 118
106, 111, 127, 107
115, 113, 103, 104
98, 113, 99, 98
114, 127, 106, 104
95, 105, 110, 115
97, 111, 118, 94
111, 133, 95, 122
96, 115, 99, 100
100, 129, 116, 93
121, 132, 83, 117
106, 110, 105, 113
121, 107, 108, 98
119, 116, 108, 124
114, 107, 115, 100
100, 108, 95, 94
115, 125, 103, 109
109, 125, 96, 97
103, 91, 118, 112
103, 107, 113, 110
137, 95, 111, 112
118, 111, 104, 110
123, 114, 111, 119
108, 134, 110, 113
116, 111, 108, 111
96, 107, 98, 106
103, 106, 102, 114
140, 99, 94, 133
119, 114, 104, 104
120, 110, 107, 118
103, 100, 91, 94
119, 106, 100, 112
114, 111, 120, 104
114, 107, 88, 106
124, 105, 107, 82
107, 121, 107, 116
99, 112, 107, 116
104, 103, 100, 121
110, 126, 106, 112
126, 119, 105, 107
102, 119, 131, 111
111, 122, 110, 117
115, 99, 109, 117
126, 118, 106, 112
111, 108, 98, 103
91, 109, 120, 129
109, 112, 103, 112
100, 113, 118, 109
115, 115, 116, 98
101, 120, 114, 90
125, 109, 119, 84
102, 104, 134, 112
110, 109, 102, 134
105, 117, 94, 115
99, 107, 112, 121
108, 130, 105, 111
127, 114, 108, 103
105, 107, 119, 113
131, 109, 120, 105
120, 107, 117, 115
123, 100, 113, 97
109, 115, 109, 88
85, 99, 99, 92
109, 113, 117, 120
105, 115, 98, 124
109, 119, 112, 110
119, 109, 119, 94
106, 90, 107, 111
115, 110, 105, 117
101, 105, 106, 129
119, 113, 109, 121
97, 107, 102, 114
103, 120, 102, 105
106, 101, 107, 120
113, 107, 117, 94
101, 127, 107, 132
103, 101, 108, 112
114, 102, 96, 135
117, 114, 123, 120
103, 97, 129, 93
115, 106, 113, 123
114, 119, 112, 109
128, 124, 132, 113
108, 109, 111, 107
99, 110, 116, 107
122, 101, 110, 84
116, 104, 120, 108
126, 128, 78, 118
107, 122, 116, 107
104, 106, 128, 109
140, 131, 121, 100
132, 125, 123, 104
125, 129, 113, 132
116, 140, 117, 116
93, 108, 110, 113
115, 112, 101, 122
135, 113, 115, 106
117, 117, 136, 118
96, 123, 113, 105
94, 120, 120, 105
110, 127, 102, 109
119, 110, 111, 111
118, 125, 99, 110
136, 119, 118, 100
95, 125, 112, 118
112, 113, 115, 116
106, 133, 125, 108
115, 109, 117, 117
122, 94, 127, 115
121, 128, 110, 106
101, 111, 121, 132
119, 89, 120, 131
101, 122, 95, 127
115, 123, 123, 140
139, 110, 111, 127
106, 120, 111, 127
114, 105, 98, 115
122, 113, 131, 122
137, 122, 101, 106
126, 115, 124, 116
104, 104, 91, 112
117, 121, 100, 113
121, 111, 120, 129
93, 126, 116, 100
105, 112, 121, 108
111, 109, 111, 116
117, 112, 100, 121
115, 117, 114, 102
105, 122, 123, 125
135, 124, 141, 89
112, 125, 109, 112
121, 120, 116, 130
113, 122, 153, 152
120, 142, 136, 181
237, 255, 289, 306
210, 172, 185, 164
115, 113, 114, 121
134, 106, 123, 116
120, 117, 133, 127
118, 133, 129, 112
115, 113, 132, 113
106, 126, 108, 114
112, 114, 131, 115
134, 135, 105, 122
117, 122, 126, 132
147, 114, 114, 115
129, 122, 135, 127
132, 126, 122, 111
113, 124, 135, 118
126, 138, 135, 113
120, 106, 110, 123
103, 133, 131, 126
120, 125, 133, 131
121, 135, 137, 139
147, 138, 141, 133
121, 144, 145, 101
126, 153, 134, 119
121, 157, 116, 145
148, 151, 162, 152
143, 181, 156, 169
157, 159, 168, 166
157, 158, 148, 143
173, 177, 219, 191
301, 363, 385, 441
545, 447, 429, 351
172, 182, 180, 184
142, 196, 173, 152
193, 205, 194, 214
221, 200, 197, 208
171, 183, 172, 173
151, 165, 187, 166
187, 169, 167, 177
149, 180, 171, 163
154, 184, 195, 190
198, 160, 176, 173
166, 193, 201, 182
187, 149, 203, 212
215, 183, 198, 195
164, 186, 157, 198
188, 186, 199, 194
199, 202, 201, 205
166, 218, 201, 230
229, 210, 253, 227
242, 292, 315, 331
486, 572, 715, 841
1154, 1098, 1107, 1202
3217, 4612, 6607, 10190
29091.4, 23254.4, 18771.6, 13588.4
10821, 13547, 14407, 13512
2435, 1583, 1094, 825
421, 362, 380, 358
266, 269, 268, 260
235, 233, 233, 204
192, 174, 196, 172
212, 189, 182, 173
168, 185, 175, 164
144, 169, 162, 182
142, 165, 177, 176
167, 147, 152, 157
146, 134, 137, 156
141, 133, 139, 157
138, 127, 177, 141
147, 162, 158, 166
168, 143, 158, 134
159, 128, 144, 148
154, 166, 157, 146
153, 147, 173, 169
171, 178, 168, 150
159, 153, 146, 168
155, 182, 191, 174
196, 228, 199, 202
257, 259, 290, 321
549, 608, 672, 830
1279, 1364, 1539, 1766
3222, 3773, 4233, 4599
5275, 5248, 5009, 5054
4926, 4854, 4543, 4107
2234, 2127, 1938, 1754
980, 780, 603, 548
402, 365, 352, 342
300, 272, 275, 289
233, 270, 221, 238
212, 170, 175, 170
163, 161, 165, 126
149, 157, 150, 146
125, 145, 128, 132
132, 137, 141, 139
147, 110, 145, 125
140, 129, 149, 134
150, 114, 138, 119
135, 123, 119, 142
137, 116, 110, 135
114, 130, 130, 127
116, 130, 111, 139
122, 106, 128, 117
121, 122, 126, 127
138, 139, 141, 124
102, 112, 129, 111
126, 121, 110, 109
122, 110, 113, 145
112, 121, 113, 138
116, 116, 123, 119
106, 121, 123, 135
130, 135, 137, 116
123, 114, 129, 125
123, 110, 106, 140
105, 130, 122, 111
128, 122, 125, 91
131, 115, 125, 120
113, 104, 133, 127
112, 144, 132, 120
131, 113, 123, 133
143, 123, 144, 145
131, 123, 115, 123
153, 124, 122, 133
116, 139, 122, 120
117, 142, 130, 138
119, 118, 120, 118
97, 94, 118, 111
123, 103, 129, 133
113, 129, 115, 136
110, 118, 108, 131
126, 117, 117, 124
116, 136, 110, 128
97, 105, 123, 128
101, 98, 115, 107
125, 119, 121, 113
112, 137, 126, 137
136, 127, 168, 122
113, 134, 142, 120
131, 139, 122, 127
106, 108, 119, 132
115, 100, 133, 117
111, 101, 113, 114
116, 120, 131, 99
95, 126, 102, 130
106, 137, 132, 121
128, 115, 142, 108
128, 143, 116, 117
139, 128, 106, 117
141, 132, 130, 128
136, 105, 136, 121
119, 130, 131, 108
123, 114, 118, 124
108, 124, 119, 101
120, 125, 130, 115
103, 146, 118, 121
121, 130, 121, 119
126, 115, 128, 138
121, 118, 135, 131
129, 124, 133, 143
125, 126, 102, 118
127, 126, 113, 126
156, 116, 121, 114
121, 143, 119, 141
130, 134, 131, 142
130, 126, 133, 135
123, 107, 122, 117
125, 125, 117, 97
116, 127, 120, 137
150, 109, 99, 113
129, 111, 121, 127
114, 102, 128, 110
117, 125, 113, 106
121, 116, 125, 117
134, 107, 116, 124
127, 124, 116, 126
110, 133, 113, 143
123, 144, 133, 121
127, 129, 122, 143
130, 127, 110, 118
128, 141, 110, 139
132, 128, 136, 112
104, 130, 124, 129
128, 120, 132, 129
110, 107, 127, 141
113, 124, 117, 136
121, 129, 108, 112
126, 117, 112, 122
131, 138, 113, 112
114, 108, 107, 115
124, 141, 126, 136
122, 121, 133, 101
130, 121, 138, 118
127, 125, 109, 124
119, 134, 136, 92
123, 119, 106, 157
113, 116, 129, 130
136, 117, 139, 116
125, 117, 112, 136
119, 130, 123, 143
127, 120, 112, 120
126, 118, 113, 150
111, 150, 144, 127
125, 119, 106, 135
138, 122, 124, 117
127, 136, 111, 128
135, 128, 133, 119
128, 121, 123, 119
126, 106, 101, 119
129, 122, 117, 127
138, 103, 133, 120
110, 118, 146, 100
121, 132, 112, 110
110, 116, 124, 112
139, 105, 117, 125
117, 109, 130, 154
124, 129, 134, 120
107, 110, 132, 134
116, 144, 118, 119
116, 129, 129, 118
128, 124, 120, 122
110, 141, 114, 129
146, 120, 124, 122
150, 116, 147, 129
151, 132, 138, 138
108, 126, 131, 124
116, 130, 131, 129
124, 155, 119, 101
112, 129, 113, 129
138, 112, 148, 146
122, 137, 113, 129
144, 129, 127, 123
107, 119, 130, 130
123, 123, 123, 131
116, 135, 129, 118
112, 107, 146, 132
115, 112, 129, 139
122, 106, 138, 122
125, 132, 112, 118
142, 129, 135, 120
126, 136, 120, 125
128, 135, 124, 147
132, 145, 110, 114
127, 119, 140, 127
127, 126, 138, 121
126, 132, 104, 120
106, 99, 118, 106
123, 109, 144, 122
142, 126, 142, 112
120, 133, 116, 101
109, 102, 153, 128
98, 119, 128, 143
124, 139, 122, 127
121, 127, 111, 129
125, 139, 127, 125
152, 149, 108, 133
132, 128, 148, 122
128, 130, 136, 142
130, 129, 127, 153
134, 119, 123, 124
113, 109, 126, 122
158, 159, 135, 114
132, 131, 128, 131
114, 142, 124, 100
120, 132, 143, 134
123, 127, 126, 108
134, 129, 118, 113
140, 126, 124, 128
125, 138, 134, 130
126, 125, 139, 142
122, 129, 121, 133
114, 135, 141, 140
110, 125, 137, 120
116, 138, 118, 134
144, 115, 108, 111
115, 113, 138, 124
128, 119, 125, 114
132, 132, 135, 122
138, 113, 126, 141
127, 142, 115, 133
116, 122, 129, 113
119, 112, 132, 117
117, 131, 110, 130
134, 127, 108, 135
139, 126, 122, 106
128, 116, 118, 121
136, 117, 107, 129
139, 152, 117, 133
125, 144, 114, 115
112, 143, 140, 126
129, 125, 129, 146
120, 104, 108, 125
131, 124, 116, 113
113, 141, 113, 119
135, 145, 127, 139
118, 132, 125, 124
146, 132, 131, 142
108, 113, 123, 108
148, 120, 125, 130
121, 112, 123, 124
137, 131, 136, 126
143, 142, 121, 117
108, 120, 90, 136
107, 106, 132, 112
134, 118, 139, 132
114, 110, 114, 109
115, 126, 123, 122
121, 119, 133, 129
115, 107, 112, 104
118, 92, 114, 112
111, 131, 104, 147
115, 148, 124, 106
106, 140, 126, 100
113, 104, 123, 105
140, 135, 111, 131
124, 131, 120, 126
135, 111, 107, 114
133, 127, 114, 122
132, 142, 116, 116
116, 113, 133, 122
109, 137, 135, 120
121, 129, 111, 122
109, 102, 136, 129
97, 131, 131, 122
102, 138, 128, 119
114, 111, 139, 135
136, 128, 125, 129
129, 138, 119, 129
143, 102, 101, 133
109, 114, 112, 135
130, 114, 117, 135
118, 142, 114, 113
123, 125, 134, 137
128, 117, 126, 122
128, 145, 130, 126
121, 134, 125, 130
119, 150, 127, 133
131, 123, 130, 126
144, 121, 106, 124
123, 139, 153, 130
143, 142, 156, 124
154, 148, 149, 142
148, 143, 150, 138
119, 161, 160, 160
159, 140, 148, 128
145, 132, 133, 120
120, 126, 140, 120
135, 103, 119, 123
108, 134, 115, 118
137, 137, 110, 137
136, 138, 137, 141
103, 125, 103, 148
120, 137, 116, 115
109, 146, 123, 118
119, 132, 145, 135
123, 139, 140, 147
132, 121, 138, 141
122, 116, 122, 106
138, 123, 134, 124
119, 123, 135, 113
153, 120, 118, 133
129, 120, 128, 123
147, 118, 129, 114
127, 104, 114, 112
126, 122, 142, 141
163, 144, 128, 117
127, 130, 132, 126
125, 114, 119, 126
129, 141, 105, 125
128, 132, 132, 131
134, 144, 119, 131
136, 137, 133, 134
107, 127, 125, 123
140, 122, 122, 126
149, 139, 142, 133
111, 137, 136, 140
111, 140, 137, 128
145, 124, 108, 132
118, 126, 132, 121
114, 107, 131, 146
141, 134, 138, 115
133, 128, 130, 113
121, 129, 113, 116
112, 135, 139, 136
110, 107, 132, 109
125, 114, 121, 112
147, 125, 140, 131
134, 125, 120, 117
123, 119, 123, 108
124, 134, 130, 134
126, 124, 125, 141
128, 134, 111, 125
131, 115, 134, 127
134, 119, 122, 129
117, 131, 142, 113
143, 120, 94, 147
160, 113, 131, 141
131, 113, 119, 121
120, 140, 119, 129
121, 116, 135, 123
129, 135, 115, 120
123, 128, 125, 135
104, 121, 126, 112
121, 138, 132, 119
101, 132, 108, 127
109, 119, 126, 121
127, 124, 126, 120
109, 115, 116, 125
125, 97, 99, 112
120, 117, 136, 145
130, 110, 138, 135
125, 132, 131, 121
114, 137, 132, 127
133, 107, 128, 129
111, 124, 106, 112
122, 103, 134, 141
126, 133, 142, 121
115, 126, 116, 130
113, 130, 123, 132
119, 121, 120, 117
130, 125, 137, 122
107, 117, 127, 109
141, 114, 123, 151
121, 112, 125, 121
133, 107, 130, 118
146, 133, 128, 130
104, 135, 122, 116
111, 129, 134, 134
153, 121, 110, 122
147, 128, 148, 141
138, 135, 172, 138
143, 142, 151, 149
144, 126, 147, 142
119, 145, 135, 123
128, 128, 151, 134
140, 132, 125, 111
110, 126, 134, 137
131, 129, 135, 109
144, 118, 127, 156
125, 106, 118, 99
133, 137, 146, 127
151, 112, 129, 145
131, 150, 130, 119
124, 134, 137, 114
125, 117, 135, 122
144, 130, 118, 120
131, 133, 109, 119
121, 132, 122, 143
120, 138, 138, 130
132, 132, 129, 135
151, 150, 141, 130
160, 110, 125, 143
146, 137, 127, 137
126, 126, 124, 132
160, 131, 148, 107
143, 126, 142, 115
137, 130, 131, 137
140, 112, 140, 118
146, 134, 146, 110
151, 135, 142, 129
129, 124, 133, 129
114, 124, 140, 122
141, 129, 123, 124
138, 120, 126, 134
138, 120, 137, 115
137, 148, 132, 156
129, 133, 125, 121
148, 141, 131, 114
131, 142, 137, 129
148, 128, 155, 155
181, 157, 143, 159
174, 180, 165, 162
200, 218, 216, 224
305, 338, 360, 417
670, 708, 742, 881
1050, 1182, 1171, 1233
1431, 1392, 1363, 1467
1504, 1486, 1508, 1425
1325, 1261, 1144, 1040
775, 738, 759, 690
650, 621, 574, 542
393, 332, 275, 286
168, 174, 164, 143
152, 136, 135, 153
140, 134, 167, 129
141, 137, 145, 150
121, 155, 123, 135
134, 134, 112, 139
146, 146, 131, 122
131, 120, 124, 131
119, 116, 130, 145
114, 133, 131, 127
127, 123, 117, 132
122, 123, 128, 140
129, 108, 122, 136
151, 126, 125, 123
124, 128, 118, 130
128, 135, 127, 131
146, 118, 151, 119
130, 131, 122, 135
137, 115, 139, 129
131, 116, 138, 139
115, 123, 132, 125
149, 123, 135, 113
130, 117, 143, 137
134, 121, 135, 118
91, 135, 127, 103
135, 139, 143, 128
139, 145, 132, 141
119, 140, 124, 113
146, 128, 123, 125
121, 131, 134, 137
129, 127, 127, 139
122, 125, 134, 108
124, 124, 131, 115
116, 131, 146, 128
129, 129, 135, 126
121, 156, 98, 124
129, 118, 113, 115
126, 135, 152, 122
138, 100, 117, 103
153, 114, 133, 135
123, 129, 129, 119
124, 127, 133, 121
100, 151, 143, 127
140, 139, 122, 133
119, 117, 138, 131
146, 126, 129, 130
148, 129, 131, 116
138, 134, 135, 143
123, 132, 122, 133
138, 139, 165, 146
176, 176, 211, 192
227, 229, 278, 240
410
*END

*EOF