File: XRD-20251211/3-1_2-Theta_Omega.asc
*TYPE		=  Raw
*CLASS		=  ASCII CLASS
*SAMPLE		=
*COMMENT	=
*FNAME		=  3-1_2-Theta_Omega.asc
*DATE		=  11-Dec-25 16:12

*GROUP_COUNT	=  1
*GONIO		=  SmartLab(In-plane), 0.000000
*ATTACHMENT	=  Z-Phi Stage
*ASC		=  0, 0, 0.000000, 0.000000
*I_MONOCHRO	=  Soller_slit_5.0deg, 0.000000
*FILTER		=  None
*C_MONOCHRO	=  None, 0.000000
*SLIT_NAME	=  0, Incident slit
*SLIT_NAME	=  1, Receiving slit # 1
*SLIT_NAME	=  2, Receiving slit # 2
*COUNTER	=  SC-70, 0
*POS_FORMAT	=  0
*SCAN_AXIS	=  2Theta/Omega
*MEAS_MODE	=  Continuous Scanning
*TARGET		=  29
*XRAY_CHAR	=  K-ALPHA
*WAVE_LENGTH1	=  1.54059
*WAVE_LENGTH2	=  1.54441
*THICKNESS	=  0, 0.000000
*MU		=  0, 0.000000
*SCAN_MODE	=  2Theta/Omega
*SPEED_DIM	=  sec./step
*XUNIT		=  deg.
*YUNIT		=  counts
*SCALE_MODE	=  1
*REP_COUNT	=  0
*SE_COUNT	=  0
*STD_MATERIAL	=  Unknown, Unknown, 0.000000, 0.000000, 0.000000, 0.000000, 0.000000, 0.000000
*LATT_CONS	=  0, Unknown, Unknown, 0.000000, 0.000000, 0.000000, 0.000000, 0.000000, 0.000000
*SEC_COUNT	=  1
*TSPEC_SIZE	=  0
*EXTRA_SIZE	=  0
*MEMO		=

*BEGIN
*GROUP		=  0
*START		=  20
*STOP		=  80
*STEP		=  0.01
*OFFSET		=  0.000000
*SPEED		=  0.05
*SLIT_SPEC	=  0, 1.000mm, 1, 0.000000
*SLIT_SPEC	=  1, 1.000mm, 1, 0.000000
*SLIT_SPEC	=  2, 1.000mm, 1, 0.000000
*KV		=  40
*MA		=  100
*LOW		=  0.000000
*HIGH		=  0.000000
*CTEMPER	=  0, 0.000000
*CTEMPER	=  1, 0.000000
*CTEMPER	=  2, 0.000000
*PAREX		=  0, 0.000000
*PAREX		=  1, 0.000000
*PAREX		=  2, 0.000000
*PAREX		=  3, 0.000000
*PAREX		=  4, 0.000000
*PAREX		=  5, 0.000000
*PAREX		=  6, 0.000000
*PAREX		=  7, 0.000000
*PAREX		=  8, 0.000000
*PAREX		=  9, 0.000000
*PAREX		=  10, 0.000000
*PAREX		=  11, 0.000000
*PAREX		=  12, 0.000000
*PAREX		=  13, 0.000000
*PAREX		=  14, 0.000000
*PAREX		=  15, 0.000000
*FULL_SCALE	=  190440
*INDEX		=  0, 0, 0
*COUNT		=  6001
95, 96, 87, 95
109, 93, 88, 82
79, 91, 91, 102
107, 98, 118, 99
93, 83, 107, 97
82, 93, 102, 107
99, 98, 87, 93
85, 101, 95, 74
119, 79, 86, 112
88, 91, 92, 112
85, 91, 105, 100
82, 91, 85, 93
99, 89, 88, 84
99, 87, 93, 123
89, 90, 109, 87
93, 89, 84, 102
73, 97, 94, 98
103, 80, 94, 78
113, 73, 84, 86
100, 101, 88, 97
85, 86, 87, 87
98, 96, 90, 87
104, 81, 109, 91
82, 94, 97, 102
83, 90, 96, 97
82, 92, 89, 101
95, 90, 72, 106
89, 97, 81, 77
89, 105, 83, 97
85, 99, 88, 74
111, 97, 87, 107
99, 79, 94, 86
95, 95, 91, 84
104, 79, 106, 86
96, 98, 104, 95
97, 83, 91, 96
99, 103, 95, 114
100, 106, 101, 89
87, 94, 80, 89
99, 96, 92, 101
74, 106, 115, 92
86, 98, 95, 98
105, 83, 102, 99
110, 94, 111, 97
105, 79, 83, 98
107, 99, 119, 98
85, 90, 98, 88
85, 83, 93, 105
81, 101, 87, 91
111, 97, 84, 108
86, 91, 100, 78
92, 95, 92, 103
87, 87, 103, 92
111, 101, 116, 104
84, 93, 102, 108
90, 98, 102, 87
106, 107, 107, 90
94, 90, 80, 107
96, 103, 90, 98
91, 78, 89, 95
116, 104, 98, 111
93, 81, 106, 90
81, 95, 117, 104
86, 106, 107, 118
113, 90, 103, 103
104, 92, 93, 102
87, 78, 104, 93
89, 97, 97, 88
95, 95, 101, 86
102, 87, 93, 105
99, 106, 103, 77
102, 113, 91, 90
89, 77, 97, 93
84, 89, 124, 126
109, 92, 80, 105
91, 76, 84, 104
97, 100, 105, 105
96, 106, 89, 89
104, 107, 100, 96
100, 83, 82, 103
109, 96, 92, 112
75, 96, 90, 87
102, 113, 97, 105
81, 107, 108, 95
118, 99, 88, 93
68, 94, 100, 108
98, 113, 85, 104
72, 102, 82, 89
102, 104, 99, 108
101, 114, 105, 116
97, 105, 108, 100
102, 96, 105, 88
82, 102, 86, 89
89, 90, 95, 94
109, 103, 106, 111
93, 94, 93, 97
96, 98, 86, 95
101, 89, 107, 101
103, 108, 101, 105
88, 87, 102, 105
117, 100, 107, 115
106, 90, 90, 105
97, 116, 93, 89
84, 107, 96, 83
100, 111, 99, 115
97, 115, 93, 93
94, 102, 109, 104
86, 103, 101, 97
110, 107, 103, 85
118, 96, 100, 100
105, 96, 96, 102
103, 105, 89, 111
92, 97, 111, 110
121, 111, 109, 82
87, 104, 101, 91
90, 91, 100, 87
95, 98, 103, 103
109, 100, 110, 114
100, 103, 92, 86
97, 86, 99, 103
123, 107, 88, 111
107, 111, 92, 103
89, 102, 120, 96
96, 87, 111, 106
110, 92, 77, 94
96, 107, 88, 86
110, 78, 92, 101
92, 98, 105, 118
113, 99, 92, 89
104, 87, 82, 105
107, 114, 93, 106
100, 107, 93, 108
88, 95, 96, 97
114, 94, 96, 101
93, 109, 105, 107
99, 96, 116, 101
102, 108, 104, 102
91, 96, 96, 101
98, 87, 102, 89
110, 92, 94, 99
95, 92, 87, 104
111, 94, 94, 95
94, 110, 99, 105
94, 98, 110, 106
95, 92, 94, 102
135, 106, 108, 96
115, 121, 114, 116
112, 91, 107, 87
108, 109, 109, 103
105, 93, 92, 106
99, 102, 127, 99
96, 102, 109, 97
106, 116, 112, 91
110, 104, 99, 103
118, 101, 99, 100
102, 95, 100, 95
112, 99, 108, 106
118, 86, 77, 110
90, 105, 94, 107
109, 94, 96, 99
93, 101, 103, 88
85, 103, 105, 103
111, 93, 116, 92
96, 105, 109, 100
103, 97, 93, 100
97, 110, 104, 88
94, 97, 102, 96
117, 108, 108, 116
103, 98, 115, 91
95, 107, 96, 85
106, 119, 98, 96
90, 110, 120, 99
105, 100, 93, 90
120, 97, 76, 124
102, 113, 122, 100
96, 92, 93, 105
100, 112, 122, 106
88, 94, 115, 102
100, 121, 95, 111
93, 107, 111, 103
112, 101, 94, 101
93, 110, 93, 104
109, 105, 98, 89
110, 96, 93, 106
114, 121, 111, 103
94, 102, 128, 121
110, 97, 105, 97
96, 108, 122, 103
129, 100, 118, 114
111, 119, 121, 108
102, 123, 123, 108
132, 125, 110, 138
119, 129, 146, 141
160, 151, 160, 155
180, 200, 193, 216
229, 254, 205, 196
192, 192, 226, 180
162, 176, 163, 152
152, 128, 124, 116
139, 130, 124, 130
136, 116, 115, 113
121, 115, 108, 107
126, 120, 94, 115
122, 105, 125, 112
96, 105, 103, 102
109, 124, 102, 117
89, 112, 105, 111
124, 116, 117, 97
115, 99, 108, 109
118, 97, 113, 113
86, 123, 105, 91
114, 97, 109, 96
110, 93, 99, 110
108, 107, 102, 124
106, 115, 110, 121
91, 95, 113, 122
128, 101, 126, 123
102, 91, 115, 92
116, 103, 107, 106
97, 110, 130, 83
112, 108, 109, 102
129, 120, 118, 112
97, 104, 116, 87
113, 101, 119, 97
114, 130, 115, 107
104, 94, 101, 118
110, 113, 101, 105
95, 125, 117, 114
105, 110, 95, 99
113, 114, 111, 109
112, 98, 111, 97
116, 116, 138, 105
133, 118, 119, 92
109, 111, 99, 97
91, 105, 109, 107
115, 101, 115, 113
110, 132, 102, 108
103, 120, 108, 105
106, 109, 136, 121
135, 117, 95, 97
120, 107, 120, 113
119, 113, 90, 113
106, 101, 96, 117
123, 143, 146, 144
136, 144, 146, 150
152, 141, 129, 107
110, 122, 138, 93
108, 111, 100, 115
115, 87, 138, 102
95, 134, 103, 96
104, 107, 107, 100
87, 99, 117, 116
104, 117, 112, 105
120, 85, 104, 105
120, 94, 121, 129
111, 96, 107, 99
107, 104, 99, 84
99, 122, 103, 110
130, 101, 122, 114
109, 115, 106, 105
108, 98, 120, 98
126, 99, 116, 99
111, 125, 90, 93
120, 123, 111, 115
77, 95, 120, 130
118, 116, 89, 100
106, 107, 104, 113
105, 103, 110, 123
131, 109, 119, 114
134, 121, 107, 109
125, 120, 131, 107
101, 104, 117, 114
119, 121, 118, 112
122, 118, 113, 132
152, 167, 150, 137
175, 161, 190, 172
185, 174, 198, 186
165, 166, 166, 156
129, 139, 141, 143
155, 124, 129, 151
120, 135, 150, 136
127, 124, 126, 121
141, 130, 125, 144
149, 115, 141, 111
120, 142, 130, 125
129, 127, 129, 150
141, 145, 150, 147
130, 155, 140, 163
121, 161, 157, 146
127, 145, 149, 145
163, 139, 146, 152
157, 147, 158, 148
152, 150, 148, 158
166, 151, 161, 176
174, 156, 158, 174
191, 207, 215, 213
285, 271, 295, 341
497, 567, 668, 779
1931, 2367, 2806, 3310
5608, 5738, 6094, 6220
7695, 7800, 7935, 7899
5753, 4778, 4327, 3810
2849, 2547, 2336, 1866
590, 537, 504, 430
376, 342, 315, 322
281, 278, 285, 233
208, 234, 221, 214
171, 179, 179, 185
149, 144, 141, 146
140, 166, 162, 128
130, 139, 132, 114
129, 122, 128, 119
122, 125, 120, 113
123, 134, 114, 126
122, 98, 108, 127
113, 135, 130, 141
126, 112, 106, 118
126, 104, 127, 111
117, 114, 107, 122
115, 120, 88, 119
123, 106, 116, 126
124, 89, 113, 102
128, 118, 122, 122
122, 114, 126, 107
119, 120, 116, 121
102, 112, 138, 126
112, 125, 119, 113
102, 101, 105, 95
110, 140, 112, 131
116, 93, 116, 115
122, 90, 127, 110
124, 119, 113, 115
106, 116, 115, 116
96, 103, 111, 106
100, 119, 112, 117
117, 101, 137, 104
115, 94, 108, 107
112, 123, 123, 104
120, 109, 106, 97
140, 118, 114, 93
117, 117, 102, 105
114, 118, 120, 106
115, 106, 87, 103
111, 111, 114, 111
102, 107, 113, 98
122, 114, 92, 108
109, 115, 114, 125
93, 94, 103, 115
115, 107, 116, 99
102, 94, 112, 109
105, 114, 127, 103
137, 95, 126, 129
114, 96, 117, 122
135, 118, 107, 105
121, 105, 121, 112
109, 120, 105, 117
114, 120, 123, 123
95, 122, 110, 111
114, 110, 80, 109
100, 91, 102, 105
101, 96, 97, 121
109, 111, 110, 100
103, 109, 101, 121
108, 114, 102, 125
112, 95, 98, 108
122, 117, 107, 103
106, 116, 121, 110
112, 114, 115, 123
124, 115, 100, 98
136, 108, 122, 115
117, 97, 106, 108
116, 108, 96, 94
91, 125, 136, 108
110, 113, 121, 106
134, 104, 107, 112
118, 118, 107, 108
109, 103, 102, 138
118, 119, 101, 109
105, 116, 119, 110
124, 117, 132, 109
85, 122, 111, 105
120, 123, 112, 98
123, 110, 115, 112
102, 90, 108, 110
90, 120, 122, 97
116, 122, 106, 114
119, 118, 94, 123
106, 96, 116, 122
106, 114, 116, 131
117, 105, 109, 122
102, 136, 116, 115
100, 113, 130, 125
95, 124, 122, 113
93, 116, 123, 110
107, 118, 128, 107
117, 104, 114, 115
111, 106, 106, 110
111, 114, 113, 119
116, 105, 107, 113
126, 111, 117, 123
99, 95, 135, 104
104, 118, 106, 100
121, 105, 105, 106
111, 111, 116, 114
105, 106, 114, 102
133, 111, 102, 118
109, 106, 100, 105
122, 103, 117, 114
109, 116, 114, 118
120, 106, 124, 97
103, 115, 119, 115
100, 127, 111, 104
90, 101, 115, 121
134, 118, 117, 121
117, 129, 107, 102
114, 105, 117, 123
93, 101, 114, 120
118, 101, 105, 116
120, 114, 96, 95
106, 110, 108, 115
115, 107, 119, 108
106, 99, 115, 105
114, 99, 123, 122
116, 116, 122, 98
116, 127, 119, 122
120, 111, 131, 99
114, 109, 96, 117
115, 107, 122, 114
112, 93, 104, 108
108, 92, 117, 110
118, 120, 116, 95
103, 118, 111, 111
118, 122, 131, 94
96, 120, 115, 100
131, 123, 117, 120
116, 119, 109, 112
108, 127, 122, 105
100, 105, 94, 128
91, 104, 115, 119
109, 91, 125, 96
109, 99, 116, 97
122, 105, 102, 103
104, 102, 97, 106
116, 100, 104, 102
120, 101, 107, 100
105, 116, 114, 112
119, 118, 130, 121
109, 121, 110, 112
109, 120, 113, 134
114, 109, 114, 114
112, 104, 120, 116
140, 111, 95, 97
113, 106, 131, 88
114, 110, 96, 120
108, 121, 103, 112
113, 116, 97, 124
120, 115, 109, 108
108, 113, 97, 108
117, 109, 117, 120
103, 118, 104, 104
112, 109, 117, 111
117, 105, 88, 124
105, 129, 96, 112
107, 89, 107, 123
90, 117, 106, 112
102, 119, 101, 116
98, 104, 110, 115
103, 109, 120, 122
113, 112, 114, 108
101, 101, 133, 117
106, 105, 116, 102
102, 114, 106, 113
95, 122, 136, 106
112, 122, 116, 104
105, 107, 86, 122
94, 110, 120, 126
94, 110, 123, 99
109, 99, 137, 112
130, 103, 110, 115
115, 81, 114, 112
118, 131, 124, 98
99, 121, 110, 117
113, 124, 116, 123
105, 107, 101, 112
117, 113, 119, 105
94, 88, 98, 114
114, 113, 113, 127
104, 100, 106, 114
133, 99, 131, 104
113, 119, 124, 97
108, 99, 109, 112
116, 106, 116, 117
110, 106, 106, 115
109, 108, 98, 91
113, 94, 104, 120
132, 113, 101, 113
95, 120, 119, 106
104, 104, 104, 116
114, 123, 103, 125
103, 122, 126, 120
127, 123, 113, 106
144, 123, 112, 104
115, 99, 117, 122
116, 114, 94, 107
118, 106, 108, 99
116, 102, 116, 110
114, 106, 112, 120
117, 108, 123, 119
111, 112, 124, 105
114, 109, 145, 113
115, 98, 105, 107
105, 107, 100, 102
105, 110, 119, 114
104, 104, 114, 89
98, 114, 105, 109
124, 126, 99, 108
115, 98, 124, 131
92, 104, 106, 112
109, 99, 115, 111
93, 98, 94, 112
118, 101, 131, 118
134, 112, 111, 116
111, 121, 115, 108
119, 110, 94, 104
92, 127, 103, 132
99, 121, 121, 101
107, 123, 110, 118
124, 126, 96, 117
112, 111, 113, 117
105, 120, 106, 123
124, 105, 116, 119
125, 116, 107, 110
125, 105, 104, 103
132, 99, 107, 97
116, 116, 135, 104
106, 117, 111, 120
99, 129, 102, 124
88, 85, 124, 113
118, 84, 110, 128
102, 126, 96, 104
102, 110, 121, 122
112, 113, 132, 108
124, 128, 107, 109
120, 116, 116, 110
112, 86, 119, 118
133, 115, 117, 105
123, 114, 115, 107
110, 107, 122, 108
112, 101, 106, 114
117, 120, 117, 134
128, 116, 126, 105
101, 98, 103, 134
132, 118, 119, 114
118, 99, 115, 125
111, 113, 111, 130
121, 124, 110, 134
134, 139, 121, 137
117, 137, 134, 120
112, 139, 141, 122
113, 126, 116, 134
116, 124, 119, 132
138, 105, 114, 92
100, 118, 113, 136
99, 96, 114, 115
99, 112, 105, 112
101, 98, 108, 114
124, 116, 108, 126
109, 102, 108, 102
104, 85, 91, 118
114, 123, 122, 115
97, 110, 124, 105
118, 125, 120, 129
119, 124, 104, 129
125, 117, 111, 106
109, 122, 131, 115
134, 110, 105, 109
95, 104, 123, 101
115, 111, 119, 114
128, 88, 107, 117
131, 108, 103, 133
105, 114, 112, 114
111, 95, 125, 102
107, 115, 116, 117
86, 119, 114, 120
124, 120, 109, 133
126, 104, 107, 109
112, 117, 133, 111
112, 107, 123, 130
118, 153, 124, 130
111, 132, 106, 129
116, 114, 114, 102
123, 119, 108, 115
108, 98, 124, 108
109, 103, 114, 119
101, 116, 121, 126
95, 121, 92, 119
108, 110, 109, 103
99, 117, 94, 115
103, 109, 119, 100
104, 134, 129, 103
114, 124, 91, 102
89, 102, 113, 123
107, 127, 104, 113
111, 121, 100, 99
100, 114, 119, 111
110, 133, 104, 100
101, 101, 101, 96
116, 107, 108, 115
118, 103, 108, 131
105, 125, 98, 127
97, 115, 88, 127
97, 128, 97, 103
108, 108, 120, 109
103, 119, 103, 103
119, 111, 112, 117
102, 107, 112, 121
103, 112, 111, 116
114, 99, 112, 123
124, 108, 114, 94
128, 100, 106, 126
127, 120, 117, 111
108, 114, 114, 126
111, 114, 125, 101
124, 118, 106, 137
107, 113, 132, 104
91, 122, 122, 116
132, 103, 115, 120
100, 112, 116, 97
101, 115, 110, 111
125, 108, 118, 102
105, 116, 106, 103
117, 111, 104, 131
116, 95, 120, 105
100, 99, 131, 126
114, 99, 112, 126
106, 123, 101, 114
106, 92, 113, 115
126, 116, 105, 120
103, 111, 117, 114
99, 117, 122, 114
111, 122, 101, 97
117, 125, 104, 105
128, 123, 110, 122
106, 119, 123, 116
112, 110, 132, 116
128, 134, 116, 119
100, 138, 134, 134
114, 139, 129, 130
122, 123, 110, 113
135, 106, 110, 112
116, 136, 114, 102
111, 120, 116, 111
127, 98, 116, 124
111, 135, 134, 104
109, 126, 109, 112
118, 107, 125, 124
112, 123, 104, 100
112, 124, 126, 125
127, 129, 95, 116
120, 120, 111, 129
113, 117, 108, 108
110, 129, 125, 114
122, 100, 128, 120
111, 132, 112, 125
110, 121, 141, 143
136, 109, 98, 123
116, 113, 134, 111
109, 113, 120, 126
117, 119, 121, 116
123, 103, 121, 106
128, 102, 118, 131
127, 116, 116, 108
129, 132, 114, 135
109, 117, 119, 136
131, 111, 108, 115
120, 142, 128, 112
116, 126, 114, 126
113, 128, 127, 116
140, 122, 110, 135
129, 113, 128, 145
127, 126, 145, 138
128, 111, 135, 137
113, 123, 125, 138
137, 147, 135, 139
154, 143, 137, 173
122, 156, 144, 169
158, 177, 180, 177
187, 176, 208, 188
230, 204, 251, 261
324, 366, 373, 455
841, 974, 1051, 1160
1817, 2147, 2420, 2757
3049, 2795, 2600, 2457
1699, 1575, 1577, 1447
1603, 1612, 1630, 1696
1323, 1217, 1082, 1033
666, 549, 501, 422
263, 239, 240, 219
154, 192, 157, 177
159, 154, 163, 158
162, 158, 172, 153
168, 128, 153, 177
127, 133, 121, 131
140, 144, 140, 127
142, 115, 140, 119
126, 134, 124, 116
109, 133, 146, 141
122, 148, 135, 125
131, 123, 117, 115
140, 140, 126, 119
119, 116, 137, 124
112, 136, 110, 127
122, 125, 125, 118
109, 137, 123, 128
132, 124, 140, 110
114, 121, 110, 134
135, 91, 141, 113
129, 135, 126, 135
111, 126, 113, 116
118, 116, 114, 128
126, 136, 132, 123
105, 111, 116, 109
124, 115, 128, 105
122, 134, 120, 126
122, 96, 122, 121
116, 109, 110, 117
108, 124, 124, 100
133, 126, 104, 129
91, 107, 127, 130
119, 111, 118, 104
113, 99, 108, 113
114, 119, 118, 102
120, 124, 131, 120
134, 114, 111, 112
138, 98, 123, 107
108, 98, 119, 119
122, 131, 115, 128
118, 113, 140, 133
117, 137, 123, 118
123, 133, 125, 130
111, 111, 121, 124
120, 131, 122, 120
103, 121, 118, 116
117, 138, 115, 101
115, 111, 127, 86
111, 101, 131, 108
120, 123, 117, 79
119, 101, 136, 112
120, 117, 122, 127
118, 129, 121, 137
118
*END

*EOF