File: XRD-20251211/3-2_2-Theta_Omega.asc
*TYPE		=  Raw
*CLASS		=  ASCII CLASS
*SAMPLE		=
*COMMENT	=
*FNAME		=  3-2_2-Theta_Omega.asc
*DATE		=  11-Dec-25 16:20

*GROUP_COUNT	=  1
*GONIO		=  SmartLab(In-plane), 0.000000
*ATTACHMENT	=  Z-Phi Stage
*ASC		=  0, 0, 0.000000, 0.000000
*I_MONOCHRO	=  Soller_slit_5.0deg, 0.000000
*FILTER		=  None
*C_MONOCHRO	=  None, 0.000000
*SLIT_NAME	=  0, Incident slit
*SLIT_NAME	=  1, Receiving slit # 1
*SLIT_NAME	=  2, Receiving slit # 2
*COUNTER	=  SC-70, 0
*POS_FORMAT	=  0
*SCAN_AXIS	=  2Theta/Omega
*MEAS_MODE	=  Continuous Scanning
*TARGET		=  29
*XRAY_CHAR	=  K-ALPHA
*WAVE_LENGTH1	=  1.54059
*WAVE_LENGTH2	=  1.54441
*THICKNESS	=  0, 0.000000
*MU		=  0, 0.000000
*SCAN_MODE	=  2Theta/Omega
*SPEED_DIM	=  sec./step
*XUNIT		=  deg.
*YUNIT		=  counts
*SCALE_MODE	=  1
*REP_COUNT	=  0
*SE_COUNT	=  0
*STD_MATERIAL	=  Unknown, Unknown, 0.000000, 0.000000, 0.000000, 0.000000, 0.000000, 0.000000
*LATT_CONS	=  0, Unknown, Unknown, 0.000000, 0.000000, 0.000000, 0.000000, 0.000000, 0.000000
*SEC_COUNT	=  1
*TSPEC_SIZE	=  0
*EXTRA_SIZE	=  0
*MEMO		=

*BEGIN
*GROUP		=  0
*START		=  20
*STOP		=  80
*STEP		=  0.01
*OFFSET		=  0.000000
*SPEED		=  0.05
*SLIT_SPEC	=  0, 1.000mm, 1, 0.000000
*SLIT_SPEC	=  1, 1.000mm, 1, 0.000000
*SLIT_SPEC	=  2, 1.000mm, 1, 0.000000
*KV		=  40
*MA		=  100
*LOW		=  0.000000
*HIGH		=  0.000000
*CTEMPER	=  0, 0.000000
*CTEMPER	=  1, 0.000000
*CTEMPER	=  2, 0.000000
*PAREX		=  0, 0.000000
*PAREX		=  1, 0.000000
*PAREX		=  2, 0.000000
*PAREX		=  3, 0.000000
*PAREX		=  4, 0.000000
*PAREX		=  5, 0.000000
*PAREX		=  6, 0.000000
*PAREX		=  7, 0.000000
*PAREX		=  8, 0.000000
*PAREX		=  9, 0.000000
*PAREX		=  10, 0.000000
*PAREX		=  11, 0.000000
*PAREX		=  12, 0.000000
*PAREX		=  13, 0.000000
*PAREX		=  14, 0.000000
*PAREX		=  15, 0.000000
*FULL_SCALE	=  88992
*INDEX		=  0, 0, 0
*COUNT		=  6001
111, 106, 112, 108
111, 101, 104, 82
114, 118, 114, 113
114, 117, 105, 97
110, 92, 103, 104
115, 96, 95, 106
116, 107, 96, 106
107, 110, 114, 96
107, 118, 114, 113
113, 114, 91, 102
101, 116, 101, 112
112, 93, 110, 115
100, 105, 112, 120
103, 110, 112, 107
115, 120, 106, 116
101, 111, 95, 108
99, 111, 113, 132
101, 105, 102, 133
104, 101, 90, 98
113, 105, 108, 107
113, 124, 96, 110
96, 108, 116, 112
105, 90, 89, 106
120, 131, 110, 107
105, 108, 94, 108
112, 115, 95, 94
120, 112, 116, 124
103, 98, 108, 107
110, 108, 125, 80
116, 108, 108, 106
111, 116, 121, 105
116, 114, 106, 102
85, 133, 117, 108
127, 84, 104, 101
118, 104, 106, 118
102, 110, 105, 97
101, 106, 111, 114
107, 101, 93, 113
119, 97, 110, 93
107, 113, 108, 101
117, 100, 88, 99
112, 116, 115, 122
119, 115, 101, 113
127, 101, 101, 104
105, 109, 87, 106
117, 111, 121, 97
120, 94, 108, 113
97, 117, 111, 107
109, 117, 100, 120
106, 118, 120, 108
113, 114, 103, 104
103, 94, 117, 120
108, 107, 103, 134
108, 105, 95, 112
113, 116, 99, 90
116, 97, 111, 106
105, 106, 96, 101
98, 124, 101, 97
112, 114, 114, 116
93, 103, 82, 119
116, 98, 104, 139
97, 93, 120, 100
117, 109, 92, 114
113, 114, 98, 110
131, 99, 109, 100
109, 101, 100, 124
123, 89, 111, 105
87, 113, 95, 120
112, 107, 120, 113
92, 102, 109, 107
111, 97, 124, 95
101, 108, 102, 103
83, 96, 98, 116
136, 109, 104, 109
136, 97, 106, 132
109, 108, 113, 115
97, 112, 100, 108
126, 109, 126, 117
110, 98, 103, 114
108, 96, 93, 91
94, 99, 125, 105
101, 88, 118, 111
117, 128, 108, 99
112, 106, 93, 109
111, 106, 128, 99
107, 128, 82, 123
106, 128, 128, 72
119, 95, 104, 104
102, 108, 113, 96
99, 103, 119, 107
115, 112, 110, 103
110, 100, 99, 140
116, 95, 123, 128
109, 123, 97, 103
97, 99, 121, 106
119, 103, 120, 112
110, 93, 111, 104
102, 112, 102, 110
108, 109, 125, 98
106, 107, 130, 98
103, 122, 103, 106
119, 111, 84, 115
97, 114, 117, 126
111, 98, 108, 114
120, 114, 115, 100
104, 97, 114, 106
114, 102, 115, 118
123, 115, 102, 114
117, 119, 106, 115
103, 128, 105, 121
124, 101, 113, 118
115, 105, 113, 108
112, 115, 114, 124
106, 106, 98, 124
113, 105, 105, 124
113, 106, 130, 106
133, 108, 111, 86
115, 119, 121, 117
103, 114, 125, 112
113, 141, 128, 95
116, 117, 115, 110
117, 105, 113, 97
101, 106, 97, 109
108, 124, 103, 100
112, 105, 113, 114
97, 88, 110, 98
108, 101, 96, 114
108, 105, 94, 104
127, 114, 106, 97
91, 96, 94, 128
103, 121, 102, 132
123, 111, 114, 132
93, 113, 111, 109
91, 124, 116, 89
124, 109, 101, 124
129, 113, 110, 110
96, 126, 133, 111
109, 122, 102, 122
108, 94, 111, 112
131, 122, 97, 115
112, 112, 124, 105
123, 101, 122, 120
103, 80, 119, 123
113, 111, 121, 129
116, 119, 115, 121
128, 98, 107, 99
108, 116, 113, 96
116, 94, 101, 104
109, 117, 123, 112
119, 100, 120, 108
102, 126, 94, 115
86, 103, 122, 106
116, 95, 105, 102
117, 107, 120, 123
119, 122, 96, 101
114, 132, 107, 122
108, 117, 116, 118
115, 110, 116, 131
105, 122, 105, 101
100, 97, 116, 130
134, 135, 141, 113
101, 114, 104, 116
109, 116, 99, 100
108, 125, 98, 108
104, 123, 95, 112
118, 114, 106, 126
132, 119, 135, 113
132, 119, 104, 109
109, 118, 110, 105
95, 113, 108, 116
97, 108, 126, 120
97, 108, 131, 120
128, 120, 114, 121
132, 126, 111, 113
115, 93, 119, 96
111, 118, 98, 113
78, 95, 119, 106
124, 112, 93, 110
105, 135, 89, 106
118, 108, 98, 122
124, 113, 89, 121
110, 119, 102, 111
130, 107, 103, 111
98, 113, 125, 113
126, 137, 119, 102
113, 99, 118, 122
119, 122, 105, 123
108, 111, 104, 104
117, 120, 108, 120
109, 111, 117, 90
108, 99, 113, 112
118, 98, 105, 113
107, 128, 116, 127
106, 118, 109, 110
114, 108, 115, 113
131, 105, 110, 110
119, 117, 97, 121
105, 127, 96, 112
97, 125, 112, 115
139, 117, 105, 119
116, 124, 141, 138
130, 103, 118, 115
112, 96, 114, 119
112, 116, 117, 107
107, 112, 137, 121
107, 131, 103, 111
108, 99, 100, 101
119, 108, 112, 120
140, 110, 119, 89
117, 110, 100, 119
114, 141, 100, 112
115, 116, 115, 97
117, 108, 94, 129
119, 107, 101, 145
123, 109, 116, 122
125, 102, 114, 131
135, 105, 98, 119
117, 114, 111, 106
110, 116, 118, 107
106, 122, 109, 115
114, 103, 126, 114
105, 124, 124, 134
119, 123, 115, 133
121, 131, 122, 117
116, 108, 112, 120
129, 95, 98, 122
116, 109, 118, 147
111, 99, 122, 92
106, 123, 124, 91
127, 132, 140, 119
128, 95, 122, 114
116, 111, 111, 110
122, 113, 117, 123
131, 106, 101, 110
115, 130, 102, 128
127, 105, 103, 132
114, 126, 129, 111
144, 132, 114, 107
120, 107, 125, 125
119, 124, 119, 116
97, 113, 98, 125
115, 131, 108, 117
127, 112, 110, 106
143, 128, 106, 114
118, 135, 140, 128
114, 148, 142, 113
133, 113, 109, 118
129, 114, 121, 118
100, 114, 113, 117
124, 107, 123, 137
99, 119, 116, 119
102, 122, 138, 130
119, 128, 132, 111
116, 115, 112, 116
107, 119, 118, 127
118, 110, 110, 111
112, 122, 132, 123
118, 122, 102, 98
123, 114, 119, 118
111, 113, 136, 138
114, 134, 132, 115
119, 102, 132, 127
111, 115, 118, 108
138, 137, 109, 123
125, 100, 126, 127
127, 117, 106, 108
121, 131, 132, 136
129, 103, 130, 122
135, 142, 139, 127
147, 144, 122, 145
119, 110, 133, 133
138, 127, 132, 137
108, 134, 119, 138
117, 128, 125, 124
154, 155, 158, 132
157, 169, 141, 143
159, 148, 152, 136
128, 133, 123, 126
131, 147, 140, 108
119, 140, 139, 122
126, 126, 157, 119
99, 132, 142, 126
142, 138, 147, 125
151, 126, 131, 133
138, 153, 143, 141
134, 147, 112, 143
155, 140, 130, 169
109, 146, 145, 139
137, 121, 125, 154
143, 126, 126, 135
154, 150, 158, 143
132, 116, 141, 155
129, 129, 153, 134
145, 151, 140, 148
181, 168, 162, 169
203, 179, 190, 199
208, 230, 246, 245
401, 529, 637, 782
1802, 1981, 2142, 2285
2994, 3244, 3318, 3472
3679, 3525, 3446, 3411
2660, 2551, 2339, 2189
1404, 1185, 1099, 985
609, 527, 484, 437
340, 332, 306, 333
262, 245, 260, 266
231, 242, 217, 196
188, 175, 182, 166
144, 138, 170, 183
145, 146, 151, 159
154, 168, 119, 139
138, 120, 143, 124
131, 149, 112, 137
137, 150, 114, 127
129, 158, 121, 134
126, 127, 151, 132
117, 136, 145, 144
122, 119, 151, 130
126, 134, 140, 120
116, 132, 124, 127
130, 130, 127, 138
130, 123, 125, 109
141, 103, 130, 124
126, 131, 124, 116
119, 117, 115, 129
133, 118, 127, 132
133, 141, 105, 134
133, 140, 146, 119
144, 141, 134, 142
142, 138, 126, 157
122, 137, 121, 132
150, 141, 128, 108
143, 128, 141, 146
142, 150, 156, 156
160, 158, 145, 155
137, 149, 144, 140
205, 136, 164, 149
182, 167, 166, 175
181, 196, 194, 208
245, 248, 223, 232
249, 255, 252, 287
298, 303, 300, 291
276, 267, 285, 295
253, 282, 262, 255
242, 217, 238, 222
200, 204, 222, 194
169, 180, 172, 192
175, 151, 147, 181
166, 161, 155, 184
147, 148, 161, 149
140, 145, 148, 149
136, 140, 156, 157
151, 123, 137, 126
161, 133, 126, 132
115, 133, 131, 132
112, 133, 141, 144
134, 119, 107, 116
117, 121, 117, 137
131, 127, 123, 131
133, 131, 138, 141
141, 135, 104, 129
108, 124, 140, 130
130, 130, 126, 119
143, 110, 127, 142
141, 120, 119, 134
128, 137, 132, 128
116, 104, 132, 125
137, 120, 127, 119
110, 119, 130, 119
117, 136, 119, 123
120, 108, 125, 141
112, 118, 150, 97
119, 110, 126, 119
122, 116, 113, 122
105, 143, 115, 103
125, 141, 114, 133
112, 114, 118, 102
139, 131, 110, 116
115, 120, 105, 131
125, 103, 144, 110
119, 129, 133, 132
124, 113, 127, 115
114, 116, 96, 131
104, 140, 127, 113
114, 126, 133, 113
109, 113, 114, 139
123, 111, 135, 113
134, 120, 125, 92
111, 110, 97, 118
122, 123, 147, 126
137, 107, 101, 104
131, 126, 121, 126
128, 124, 109, 123
111, 118, 109, 114
110, 120, 119, 127
129, 137, 136, 135
138, 121, 118, 131
133, 131, 128, 126
117, 145, 136, 113
102, 119, 119, 104
137, 97, 136, 104
128, 127, 114, 125
119, 120, 145, 127
144, 126, 126, 130
126, 127, 131, 120
123, 136, 106, 112
113, 120, 124, 106
117, 115, 119, 113
128, 122, 137, 130
102, 132, 107, 133
119, 120, 147, 138
141, 118, 135, 128
108, 118, 110, 113
135, 119, 121, 111
132, 115, 127, 118
128, 119, 124, 111
117, 94, 124, 110
122, 117, 124, 109
123, 139, 104, 120
124, 123, 131, 108
106, 130, 96, 122
123, 118, 138, 133
117, 122, 112, 121
127, 110, 126, 111
134, 125, 125, 119
114, 146, 122, 122
118, 116, 142, 118
113, 136, 131, 132
110, 108, 116, 117
126, 116, 137, 120
128, 121, 113, 122
114, 112, 125, 137
106, 135, 112, 131
144, 129, 133, 130
128, 120, 140, 144
135, 118, 116, 112
113, 119, 151, 116
121, 130, 130, 120
120, 131, 122, 125
119, 115, 94, 119
110, 130, 117, 121
137, 133, 113, 113
129, 111, 118, 123
107, 113, 127, 122
123, 125, 110, 120
101, 129, 128, 135
125, 123, 112, 113
123, 128, 125, 119
119, 114, 111, 124
134, 122, 114, 129
122, 113, 120, 122
119, 138, 112, 135
117, 118, 128, 123
104, 119, 126, 143
117, 120, 108, 125
129, 130, 116, 132
123, 120, 123, 108
107, 126, 115, 121
119, 110, 102, 120
118, 138, 105, 129
112, 119, 115, 131
106, 135, 125, 150
118, 138, 110, 136
112, 135, 116, 109
105, 116, 135, 107
110, 124, 114, 125
120, 105, 130, 125
121, 137, 124, 115
98, 136, 121, 121
126, 141, 124, 130
99, 122, 112, 115
128, 131, 140, 120
127, 136, 141, 138
136, 139, 111, 122
133, 127, 143, 110
114, 123, 135, 139
120, 145, 107, 130
93, 125, 121, 114
130, 131, 139, 113
110, 102, 123, 126
125, 133, 134, 108
130, 124, 126, 108
117, 122, 126, 116
122, 109, 126, 134
138, 116, 118, 128
128, 111, 148, 145
101, 115, 119, 125
116, 114, 117, 97
117, 116, 126, 116
105, 122, 106, 125
131, 133, 115, 131
139, 115, 122, 127
124, 127, 115, 114
121, 129, 107, 105
108, 123, 108, 107
127, 108, 124, 103
144, 113, 137, 130
111, 113, 117, 124
133, 118, 128, 125
116, 120, 110, 125
105, 125, 132, 130
118, 117, 128, 98
112, 127, 111, 102
113, 120, 106, 127
131, 125, 129, 129
101, 138, 117, 118
134, 110, 135, 140
127, 103, 105, 110
121, 134, 111, 113
142, 124, 127, 128
130, 109, 151, 112
137, 111, 149, 130
133, 131, 136, 115
128, 113, 137, 110
114, 130, 122, 116
125, 142, 114, 110
116, 128, 114, 105
138, 110, 118, 122
117, 136, 129, 125
116, 121, 127, 104
115, 120, 110, 124
137, 111, 122, 124
111, 132, 130, 107
120, 134, 104, 145
117, 112, 96, 114
97, 113, 126, 122
109, 122, 120, 107
94, 126, 127, 120
132, 121, 125, 110
115, 129, 106, 117
115, 123, 103, 111
127, 121, 128, 106
124, 136, 112, 135
114, 108, 131, 135
116, 114, 120, 112
107, 115, 141, 114
120, 116, 115, 135
102, 110, 123, 136
138, 103, 128, 138
90, 133, 115, 123
120, 120, 113, 135
106, 119, 107, 106
105, 124, 99, 120
143, 121, 126, 128
131, 113, 129, 98
112, 109, 120, 117
124, 110, 120, 123
129, 143, 137, 142
133, 111, 113, 114
130, 107, 126, 133
116, 134, 125, 122
130, 120, 116, 112
113, 127, 126, 118
134, 144, 132, 149
158, 125, 129, 116
143, 124, 152, 122
121, 138, 119, 122
131, 142, 128, 138
145, 118, 118, 122
132, 118, 150, 127
105, 128, 117, 134
132, 153, 112, 120
133, 116, 122, 130
124, 125, 121, 103
128, 104, 125, 109
137, 107, 117, 121
103, 116, 128, 114
121, 125, 104, 131
115, 141, 96, 133
113, 114, 112, 125
124, 113, 122, 139
122, 106, 121, 131
106, 106, 133, 120
114, 136, 123, 122
120, 121, 126, 110
105, 126, 128, 116
137, 125, 117, 108
116, 122, 112, 118
109, 110, 128, 141
111, 127, 126, 92
116, 129, 125, 100
134, 116, 115, 107
119, 126, 120, 126
131, 131, 128, 132
128, 119, 126, 112
111, 137, 111, 108
130, 134, 117, 129
115, 136, 113, 116
132, 116, 128, 130
104, 124, 120, 121
94, 102, 132, 121
115, 114, 108, 131
134, 128, 122, 120
106, 118, 120, 123
112, 128, 107, 115
118, 127, 142, 116
115, 121, 105, 135
115, 115, 117, 143
130, 129, 134, 89
130, 122, 124, 111
116, 112, 109, 124
108, 129, 112, 122
124, 135, 112, 127
113, 133, 130, 113
129, 111, 116, 116
116, 123, 124, 130
116, 109, 122, 111
120, 133, 119, 122
98, 124, 124, 126
135, 115, 124, 119
105, 135, 144, 133
121, 109, 115, 131
130, 102, 129, 118
112, 120, 130, 106
129, 145, 128, 112
117, 131, 118, 108
129, 122, 127, 127
113, 121, 132, 110
100, 120, 138, 111
107, 111, 120, 127
126, 118, 117, 132
124, 123, 120, 123
118, 120, 135, 117
120, 128, 114, 103
140, 108, 127, 117
103, 130, 119, 127
115, 104, 123, 132
121, 122, 114, 107
116, 124, 105, 101
115, 106, 122, 118
129, 114, 126, 122
106, 120, 127, 128
125, 118, 93, 120
106, 126, 135, 117
113, 111, 144, 126
96, 110, 108, 118
140, 131, 109, 121
120, 137, 120, 118
105, 111, 144, 130
114, 116, 101, 130
120, 126, 112, 133
129, 120, 109, 129
126, 135, 129, 117
104, 115, 131, 146
99, 118, 116, 137
105, 116, 131, 123
117, 141, 128, 118
145, 132, 125, 117
119, 128, 126, 96
119, 126, 103, 127
116, 120, 138, 125
133, 118, 112, 118
128, 117, 134, 113
130, 104, 112, 122
111, 120, 112, 139
128, 120, 119, 123
126, 140, 100, 114
141, 120, 125, 132
125, 109, 96, 104
112, 128, 105, 117
123, 109, 94, 107
115, 106, 131, 114
117, 111, 130, 110
129, 124, 107, 134
134, 134, 123, 129
114, 124, 119, 112
111, 133, 134, 125
105, 120, 104, 127
116, 130, 143, 119
108, 111, 111, 109
119, 113, 120, 120
129, 118, 134, 128
134, 140, 145, 112
111, 117, 124, 136
130, 137, 143, 136
120, 118, 130, 125
117, 117, 117, 101
126, 138, 121, 137
126, 120, 144, 116
111, 137, 129, 132
133, 129, 115, 113
114, 132, 122, 130
135, 143, 130, 133
124, 143, 113, 127
152, 134, 126, 127
127, 129, 131, 117
124, 140, 145, 129
147, 158, 141, 133
158, 168, 155, 154
200, 219, 233, 200
315, 354, 334, 351
499, 553, 554, 610
657, 713, 734, 697
667, 639, 604, 578
466, 471, 459, 461
421, 380, 386, 375
293, 282, 271, 254
189, 195, 138, 151
133, 141, 116, 156
118, 112, 146, 129
120, 141, 137, 115
118, 137, 124, 137
131, 123, 138, 123
141, 144, 138, 124
138, 120, 148, 109
94, 141, 130, 125
120, 129, 127, 139
117, 144, 110, 108
119, 120, 140, 144
131, 123, 120, 151
128, 118, 136, 126
126, 112, 102, 118
112, 113, 128, 115
129, 123, 139, 106
109, 143, 121, 115
139, 125, 112, 149
135, 118, 125, 108
137, 124, 109, 126
113, 139, 129, 116
136, 133, 132, 127
129, 128, 122, 112
130, 122, 148, 138
132, 131, 149, 145
119, 129, 148, 134
127, 129, 130, 147
113, 120, 111, 121
140, 117, 128, 111
128, 132, 130, 118
107, 129, 110, 122
125, 127, 125, 139
113, 128, 125, 136
113, 124, 114, 134
108, 129, 124, 128
118, 119, 125, 122
127, 128, 104, 131
138, 125, 106, 133
121, 136, 142, 131
116, 112, 119, 109
124, 130, 138, 111
123, 134, 123, 137
133, 111, 123, 138
120, 134, 112, 130
112, 123, 127, 136
130, 99, 123, 133
129, 123, 116, 132
122, 101, 124, 105
119, 105, 144, 99
120, 147, 114, 125
108, 134, 148, 115
127, 135, 121, 136
129
*END

*EOF