File: XRD-20251211/4-1_2-Theta_Omega.asc
*TYPE		=  Raw
*CLASS		=  ASCII CLASS
*SAMPLE		=
*COMMENT	=
*FNAME		=  4-1_2-Theta_Omega.asc
*DATE		=  11-Dec-25 16:27

*GROUP_COUNT	=  1
*GONIO		=  SmartLab(In-plane), 0.000000
*ATTACHMENT	=  Z-Phi Stage
*ASC		=  0, 0, 0.000000, 0.000000
*I_MONOCHRO	=  Soller_slit_5.0deg, 0.000000
*FILTER		=  None
*C_MONOCHRO	=  None, 0.000000
*SLIT_NAME	=  0, Incident slit
*SLIT_NAME	=  1, Receiving slit # 1
*SLIT_NAME	=  2, Receiving slit # 2
*COUNTER	=  SC-70, 0
*POS_FORMAT	=  0
*SCAN_AXIS	=  2Theta/Omega
*MEAS_MODE	=  Continuous Scanning
*TARGET		=  29
*XRAY_CHAR	=  K-ALPHA
*WAVE_LENGTH1	=  1.54059
*WAVE_LENGTH2	=  1.54441
*THICKNESS	=  0, 0.000000
*MU		=  0, 0.000000
*SCAN_MODE	=  2Theta/Omega
*SPEED_DIM	=  sec./step
*XUNIT		=  deg.
*YUNIT		=  counts
*SCALE_MODE	=  1
*REP_COUNT	=  0
*SE_COUNT	=  0
*STD_MATERIAL	=  Unknown, Unknown, 0.000000, 0.000000, 0.000000, 0.000000, 0.000000, 0.000000
*LATT_CONS	=  0, Unknown, Unknown, 0.000000, 0.000000, 0.000000, 0.000000, 0.000000, 0.000000
*SEC_COUNT	=  1
*TSPEC_SIZE	=  0
*EXTRA_SIZE	=  0
*MEMO		=

*BEGIN
*GROUP		=  0
*START		=  20
*STOP		=  80
*STEP		=  0.01
*OFFSET		=  0.000000
*SPEED		=  0.05
*SLIT_SPEC	=  0, 1.000mm, 1, 0.000000
*SLIT_SPEC	=  1, 1.000mm, 1, 0.000000
*SLIT_SPEC	=  2, 1.000mm, 1, 0.000000
*KV		=  40
*MA		=  100
*LOW		=  0.000000
*HIGH		=  0.000000
*CTEMPER	=  0, 0.000000
*CTEMPER	=  1, 0.000000
*CTEMPER	=  2, 0.000000
*PAREX		=  0, 0.000000
*PAREX		=  1, 0.000000
*PAREX		=  2, 0.000000
*PAREX		=  3, 0.000000
*PAREX		=  4, 0.000000
*PAREX		=  5, 0.000000
*PAREX		=  6, 0.000000
*PAREX		=  7, 0.000000
*PAREX		=  8, 0.000000
*PAREX		=  9, 0.000000
*PAREX		=  10, 0.000000
*PAREX		=  11, 0.000000
*PAREX		=  12, 0.000000
*PAREX		=  13, 0.000000
*PAREX		=  14, 0.000000
*PAREX		=  15, 0.000000
*FULL_SCALE	=  9792
*INDEX		=  0, 0, 0
*COUNT		=  6001
147, 111, 133, 136
129, 120, 144, 130
128, 135, 145, 136
137, 121, 145, 120
121, 140, 122, 148
142, 125, 131, 127
132, 128, 139, 145
136, 116, 130, 146
118, 117, 143, 116
143, 122, 147, 125
160, 152, 132, 119
137, 138, 133, 125
126, 143, 142, 133
133, 142, 116, 150
145, 138, 130, 141
129, 140, 134, 145
126, 136, 147, 125
126, 128, 131, 129
147, 129, 124, 116
139, 126, 131, 142
148, 151, 158, 138
111, 136, 130, 137
131, 160, 144, 125
150, 133, 120, 124
138, 136, 140, 127
140, 138, 146, 117
151, 130, 128, 139
122, 136, 132, 138
140, 135, 156, 141
142, 139, 128, 136
102, 134, 134, 149
149, 135, 134, 123
146, 124, 136, 133
148, 136, 138, 157
114, 115, 124, 135
124, 141, 137, 128
118, 126, 133, 149
141, 139, 135, 145
126, 117, 142, 140
136, 114, 140, 156
130, 132, 155, 124
138, 132, 144, 121
135, 133, 129, 144
149, 118, 127, 135
139, 131, 138, 143
134, 122, 146, 151
132, 125, 117, 145
148, 129, 134, 141
118, 138, 158, 132
130, 125, 149, 113
125, 125, 133, 132
124, 140, 138, 130
138, 145, 128, 132
138, 123, 149, 151
139, 154, 129, 108
122, 128, 146, 146
129, 145, 126, 133
150, 141, 137, 124
148, 114, 124, 145
119, 136, 142, 143
137, 146, 139, 160
134, 136, 135, 130
128, 150, 131, 128
138, 140, 128, 129
125, 132, 111, 123
134, 134, 152, 124
133, 118, 129, 139
99, 135, 142, 145
143, 139, 121, 142
140, 143, 133, 135
134, 154, 155, 131
146, 123, 137, 126
141, 137, 141, 129
114, 132, 130, 121
139, 135, 141, 145
138, 126, 130, 123
154, 110, 134, 135
131, 112, 127, 140
139, 136, 140, 131
138, 137, 123, 124
131, 127, 135, 139
136, 124, 146, 142
138, 130, 129, 131
126, 157, 151, 144
124, 127, 126, 137
130, 130, 131, 135
125, 144, 149, 138
122, 134, 140, 122
141, 109, 115, 155
135, 139, 143, 145
107, 141, 157, 125
157, 140, 147, 135
128, 126, 132, 119
147, 143, 142, 130
115, 110, 127, 142
136, 120, 142, 136
120, 129, 157, 155
150, 113, 154, 157
130, 124, 137, 131
116, 159, 134, 140
112, 143, 124, 137
130, 130, 137, 156
147, 138, 116, 142
124, 141, 139, 127
129, 140, 141, 104
136, 125, 130, 122
136, 141, 116, 121
145, 151, 134, 139
129, 142, 154, 148
126, 126, 136, 153
142, 149, 139, 125
111, 133, 132, 122
127, 164, 125, 114
117, 130, 151, 130
117, 120, 138, 143
137, 128, 116, 149
130, 139, 139, 135
142, 119, 136, 128
133, 136, 144, 150
123, 109, 126, 140
128, 116, 130, 131
129, 148, 164, 121
145, 124, 135, 126
144, 156, 130, 138
131, 130, 141, 138
137, 146, 126, 147
138, 127, 133, 171
141, 139, 135, 153
126, 151, 127, 132
144, 118, 136, 153
120, 123, 129, 127
138, 144, 130, 126
146, 128, 132, 128
122, 127, 157, 140
136, 120, 140, 128
147, 141, 135, 124
118, 147, 132, 137
154, 142, 126, 166
118, 126, 137, 135
148, 143, 151, 116
151, 149, 138, 118
142, 131, 128, 142
133, 143, 144, 128
146, 127, 140, 138
125, 116, 147, 126
149, 161, 133, 133
129, 133, 138, 130
128, 136, 122, 135
142, 144, 129, 146
132, 124, 153, 131
120, 150, 124, 130
129, 140, 143, 146
133, 136, 125, 163
147, 151, 123, 127
145, 152, 130, 131
138, 126, 139, 128
158, 148, 137, 134
141, 152, 127, 136
135, 138, 121, 162
120, 133, 141, 140
126, 145, 122, 155
129, 127, 127, 135
121, 123, 134, 141
135, 129, 135, 133
144, 114, 125, 129
138, 128, 137, 131
133, 144, 152, 148
132, 137, 135, 135
144, 114, 163, 132
137, 145, 134, 136
139, 128, 139, 138
153, 122, 133, 140
153, 153, 125, 138
129, 147, 135, 124
143, 128, 136, 121
139, 147, 112, 125
129, 145, 145, 144
114, 131, 137, 135
151, 151, 146, 158
130, 122, 134, 134
133, 166, 142, 121
145, 145, 138, 115
126, 137, 157, 148
142, 127, 128, 168
149, 162, 126, 124
146, 129, 157, 130
141, 158, 136, 152
128, 128, 141, 133
154, 140, 115, 129
151, 128, 153, 118
145, 127, 144, 153
145, 139, 135, 169
124, 164, 147, 144
147, 126, 144, 144
141, 140, 139, 126
128, 162, 119, 121
130, 151, 144, 138
139, 127, 135, 156
132, 147, 135, 132
142, 127, 131, 132
149, 135, 125, 131
144, 162, 122, 126
149, 134, 139, 145
139, 128, 158, 127
140, 127, 135, 134
165, 131, 135, 137
146, 163, 138, 146
144, 127, 148, 150
143, 141, 156, 133
121, 132, 141, 141
139, 147, 125, 136
129, 144, 128, 143
140, 130, 145, 158
129, 117, 143, 147
148, 153, 148, 130
147, 141, 130, 111
135, 147, 139, 154
125, 132, 132, 120
128, 156, 145, 148
142, 161, 115, 143
136, 136, 135, 141
135, 137, 159, 140
156, 152, 137, 151
143, 139, 138, 130
151, 158, 150, 130
126, 123, 152, 145
143, 136, 159, 143
135, 157, 122, 117
140, 134, 167, 161
132, 148, 143, 142
146, 126, 146, 130
147, 137, 120, 133
147, 117, 143, 148
139, 129, 148, 139
141, 131, 148, 123
131, 134, 126, 152
149, 126, 148, 140
150, 153, 140, 125
126, 148, 156, 146
147, 154, 152, 127
143, 152, 123, 134
132, 156, 164, 137
144, 139, 142, 140
131, 142, 143, 142
136, 165, 161, 155
157, 124, 139, 168
142, 168, 148, 148
128, 136, 145, 132
139, 136, 144, 148
139, 147, 136, 159
132, 139, 153, 148
128, 140, 151, 143
127, 141, 136, 126
142, 145, 153, 152
141, 150, 146, 156
139, 163, 127, 146
129, 158, 139, 141
138, 139, 144, 177
141, 150, 119, 123
138, 135, 149, 141
122, 157, 127, 127
156, 171, 154, 142
162, 141, 154, 140
155, 120, 120, 153
133, 141, 128, 127
137, 140, 145, 140
128, 148, 137, 139
138, 150, 124, 132
145, 148, 148, 143
146, 149, 132, 124
162, 125, 154, 142
143, 151, 142, 134
133, 156, 170, 134
134, 151, 166, 143
147, 138, 130, 143
140, 141, 155, 118
141, 164, 150, 132
137, 155, 170, 128
156, 159, 144, 160
180, 148, 132, 159
161, 152, 159, 138
141, 150, 162, 130
150, 160, 140, 157
153, 154, 155, 135
132, 147, 151, 144
154, 157, 170, 138
156, 162, 125, 136
132, 155, 135, 129
153, 129, 151, 129
143, 149, 150, 146
171, 148, 159, 129
149, 157, 124, 155
150, 164, 145, 156
152, 150, 147, 173
157, 133, 153, 145
146, 147, 146, 132
165, 147, 152, 145
157, 156, 162, 138
174, 150, 190, 148
171, 166, 173, 167
184, 185, 184, 221
191, 221, 248, 282
281, 285, 316, 351
362, 334, 369, 389
378, 369, 363, 366
345, 337, 354, 287
261, 254, 278, 264
235, 236, 190, 231
160, 202, 174, 179
194, 199, 186, 145
150, 167, 166, 166
151, 162, 139, 165
144, 153, 153, 147
178, 130, 150, 132
155, 144, 161, 153
145, 161, 140, 154
133, 146, 138, 133
158, 139, 152, 159
149, 168, 142, 151
146, 171, 147, 149
137, 143, 138, 157
152, 159, 149, 143
148, 150, 140, 143
160, 146, 159, 152
160, 123, 144, 137
133, 158, 134, 144
148, 161, 155, 166
155, 147, 147, 158
157, 135, 139, 173
151, 143, 144, 122
119, 143, 165, 167
152, 136, 162, 161
157, 136, 152, 152
138, 140, 150, 139
152, 140, 136, 131
145, 125, 165, 155
152, 149, 142, 132
157, 145, 149, 156
150, 144, 141, 144
155, 148, 165, 153
158, 161, 151, 132
150, 137, 152, 138
142, 154, 130, 152
149, 145, 173, 157
157, 133, 148, 145
158, 146, 153, 135
133, 159, 168, 148
151, 135, 136, 143
151, 148, 142, 128
152, 162, 147, 160
150, 148, 160, 152
144, 157, 145, 154
157, 156, 157, 160
175, 148, 134, 150
152, 158, 153, 147
126, 147, 159, 168
158, 153, 146, 163
160, 170, 146, 172
170, 157, 134, 159
166, 155, 164, 153
154, 130, 145, 128
131, 134, 146, 151
155, 122, 169, 153
128, 153, 147, 133
151, 147, 134, 142
143, 145, 156, 153
173, 145, 150, 143
144, 156, 155, 153
149, 137, 159, 145
152, 163, 105, 139
157, 166, 164, 154
146, 143, 146, 136
151, 150, 163, 143
161, 150, 149, 147
167, 125, 154, 149
159, 152, 155, 142
169, 157, 124, 142
140, 146, 156, 148
164, 149, 122, 130
149, 155, 157, 127
124, 132, 145, 171
145, 167, 176, 131
160, 143, 149, 153
141, 140, 141, 161
153, 161, 138, 164
149, 138, 145, 157
144, 151, 158, 139
152, 152, 181, 138
143, 154, 134, 143
147, 153, 141, 144
145, 167, 147, 149
164, 147, 145, 152
167, 149, 145, 139
168, 153, 155, 141
149, 173, 150, 137
159, 145, 123, 136
182, 148, 139, 166
137, 148, 139, 154
145, 140, 152, 146
152, 152, 147, 134
141, 141, 171, 152
177, 144, 149, 139
153, 185, 163, 137
158, 157, 144, 154
158, 157, 125, 146
143, 154, 163, 151
157, 146, 143, 165
139, 158, 142, 156
140, 142, 164, 174
173, 153, 153, 159
168, 134, 145, 150
159, 154, 135, 151
148, 164, 177, 161
155, 143, 160, 152
187, 143, 143, 140
153, 154, 182, 160
154, 121, 147, 153
147, 140, 160, 152
150, 175, 159, 169
147, 145, 151, 163
159, 149, 160, 158
150, 140, 144, 149
141, 152, 145, 145
169, 131, 177, 169
134, 171, 152, 164
109, 144, 165, 148
145, 162, 163, 138
157, 126, 148, 178
147, 150, 144, 183
147, 147, 150, 160
151, 167, 170, 153
157, 154, 160, 146
154, 138, 136, 128
177, 131, 157, 158
166, 157, 146, 161
157, 143, 141, 161
149, 149, 156, 167
170, 149, 162, 159
144, 157, 149, 160
140, 170, 153, 158
167, 141, 150, 191
146, 140, 165, 153
131, 164, 153, 160
177, 169, 160, 155
152, 165, 166, 169
156, 160, 120, 154
157, 135, 152, 158
173, 133, 141, 154
145, 139, 146, 172
169, 167, 175, 125
169, 136, 146, 151
156, 149, 145, 176
157, 169, 150, 158
155, 161, 129, 153
165, 169, 159, 161
166, 144, 129, 142
154, 167, 147, 168
137, 152, 142, 134
148, 140, 139, 141
143, 145, 149, 139
160, 140, 154, 148
134, 135, 175, 144
128, 165, 168, 157
172, 165, 174, 144
147, 141, 165, 161
164, 177, 147, 163
157, 167, 164, 147
135, 145, 146, 167
158, 140, 149, 170
173, 152, 153, 186
165, 154, 160, 159
171, 144, 169, 154
165, 143, 147, 175
157, 136, 155, 169
179, 168, 166, 161
169, 151, 154, 150
161, 160, 156, 168
148, 154, 156, 146
153, 165, 160, 144
168, 167, 158, 143
133, 166, 156, 169
161, 163, 157, 151
148, 143, 147, 130
182, 155, 150, 169
158, 166, 173, 171
161, 163, 155, 146
157, 148, 170, 150
159, 167, 146, 166
170, 152, 170, 141
166, 162, 143, 141
158, 155, 141, 161
172, 161, 162, 164
159, 134, 150, 147
159, 159, 149, 141
159, 150, 158, 137
163, 145, 158, 147
163, 157, 130, 143
148, 158, 170, 171
153, 169, 140, 137
147, 166, 157, 168
141, 158, 163, 155
165, 150, 125, 178
146, 154, 160, 131
162, 173, 171, 185
165, 151, 144, 133
164, 172, 151, 165
170, 148, 149, 159
166, 167, 155, 177
170, 168, 174, 166
164, 156, 177, 160
172, 147, 168, 153
175, 164, 152, 168
154, 155, 174, 168
168, 172, 144, 159
175, 151, 143, 160
151, 155, 167, 164
163, 159, 150, 168
157, 159, 146, 171
165, 162, 162, 153
165, 165, 167, 149
165, 174, 154, 169
156, 177, 159, 155
160, 152, 142, 155
165, 164, 168, 145
164, 151, 159, 141
146, 163, 176, 169
159, 156, 150, 150
153, 156, 157, 144
170, 167, 158, 157
157, 164, 134, 180
143, 180, 147, 180
155, 155, 169, 160
153, 176, 157, 164
134, 189, 174, 181
168, 173, 184, 138
140, 171, 145, 150
148, 159, 163, 182
168, 171, 163, 157
165, 162, 163, 160
144, 133, 167, 170
149, 141, 155, 160
155, 190, 147, 173
164, 145, 129, 146
166, 151, 153, 151
144, 183, 137, 154
163, 154, 153, 168
151, 177, 162, 178
150, 141, 161, 173
165, 152, 145, 168
174, 171, 154, 193
160, 165, 163, 152
147, 134, 152, 152
174, 207, 185, 160
171, 171, 150, 179
201, 193, 200, 182
190, 182, 199, 196
168, 182, 206, 188
205, 190, 174, 169
171, 196, 177, 190
153, 173, 188, 185
182, 170, 196, 183
179, 173, 177, 182
158, 137, 173, 198
174, 165, 160, 169
177, 168, 154, 166
145, 154, 169, 141
153, 136, 162, 173
178, 160, 156, 150
153, 168, 154, 169
166, 158, 152, 163
158, 156, 149, 180
179, 150, 151, 163
170, 180, 175, 164
175, 167, 162, 171
168, 154, 156, 151
154, 172, 161, 148
145, 173, 146, 144
145, 160, 156, 156
171, 149, 165, 136
155, 155, 167, 132
163, 148, 153, 172
151, 160, 156, 159
140, 173, 153, 141
138, 177, 134, 151
163, 165, 155, 173
151, 163, 174, 170
164, 177, 155, 162
153, 144, 160, 172
184, 153, 160, 158
159, 158, 171, 162
154, 181, 146, 168
179, 151, 170, 181
164, 140, 177, 151
150, 166, 176, 156
168, 176, 182, 177
162, 154, 141, 153
169, 154, 167, 162
168, 176, 148, 186
151, 166, 153, 161
143, 174, 147, 176
164, 157, 157, 155
153, 159, 174, 172
174, 157, 165, 160
148, 184, 144, 158
195, 160, 164, 154
163, 171, 157, 161
150, 151, 139, 164
158, 168, 168, 158
147, 174, 150, 177
163, 153, 166, 176
193, 135, 169, 136
144, 168, 160, 165
198, 171, 164, 186
153, 139, 161, 159
177, 166, 166, 161
179, 166, 172, 177
144, 174, 145, 154
155, 171, 183, 165
173, 161, 164, 173
164, 168, 131, 185
180, 131, 170, 179
174, 159, 164, 150
172, 199, 162, 179
153, 153, 185, 183
168, 160, 166, 151
157, 135, 156, 175
145, 153, 181, 154
158, 162, 169, 186
175, 170, 187, 154
173, 129, 169, 175
169, 163, 177, 160
171, 178, 148, 172
168, 168, 138, 159
150, 166, 163, 157
166, 154, 173, 180
164, 152, 156, 154
169, 166, 175, 156
149, 177, 164, 168
158, 152, 160, 176
192, 150, 174, 164
182, 131, 173, 154
171, 198, 177, 203
165, 172, 179, 174
186, 181, 176, 156
150, 158, 201, 175
161, 157, 171, 169
177, 178, 141, 164
164, 166, 160, 165
175, 144, 168, 193
159, 157, 147, 162
181, 176, 148, 191
183, 167, 174, 159
151, 154, 147, 186
147, 154, 161, 162
192, 166, 185, 176
161, 168, 177, 179
199, 184, 149, 189
155, 164, 170, 161
175, 168, 156, 178
152, 185, 163, 159
170, 175, 186, 157
166, 169, 186, 138
168, 183, 177, 194
166, 182, 151, 168
161, 183, 159, 155
163, 152, 167, 153
175, 155, 155, 170
184, 172, 164, 166
164, 182, 165, 176
175, 168, 189, 167
200, 153, 148, 170
178, 171, 181, 163
177, 167, 181, 157
173, 164, 171, 167
166, 174, 163, 178
157, 165, 175, 163
166, 171, 209, 171
174, 158, 159, 167
172, 155, 162, 174
177, 176, 207, 180
176, 185, 181, 172
178, 171, 178, 148
158, 176, 170, 153
165, 175, 180, 161
146, 172, 167, 179
181, 193, 157, 160
170, 190, 151, 177
174, 171, 189, 163
174, 178, 164, 175
171, 175, 136, 171
151, 165, 171, 156
172, 175, 157, 149
167, 177, 149, 198
174, 153, 176, 179
175, 174, 162, 154
170, 172, 189, 153
188, 158, 180, 164
172, 171, 156, 165
184, 185, 180, 193
191, 173, 210, 185
164, 165, 188, 170
191, 164, 174, 181
156, 151, 157, 170
171, 161, 172, 180
181, 179, 154, 185
162, 200, 167, 164
183, 178, 163, 146
150, 183, 177, 167
174, 191, 169, 165
148, 175, 190, 173
194, 146, 167, 203
183, 170, 176, 181
184, 172, 165, 193
168, 168, 192, 188
167, 161, 165, 153
163, 184, 160, 185
175, 148, 172, 190
183, 185, 150, 167
170, 181, 186, 180
165, 144, 193, 176
171, 170, 190, 179
193, 168, 152, 169
180, 190, 187, 178
166, 149, 194, 196
184, 168, 192, 169
196, 165, 171, 185
162, 186, 190, 172
172, 180, 183, 198
143, 175, 188, 147
170, 190, 184, 174
180, 175, 185, 167
175, 179, 169, 170
147, 171, 182, 190
158, 160, 198, 185
206, 165, 189, 174
173, 151, 185, 167
177, 179, 166, 172
157, 173, 171, 178
199, 179, 159, 184
159, 187, 180, 164
180, 171, 184, 188
192, 170, 175, 209
171, 161, 194, 171
171, 164, 161, 186
181, 167, 158, 177
179, 167, 187, 220
174, 179, 185, 172
188, 159, 198, 187
185, 191, 174, 174
197, 192, 185, 182
162
*END

*EOF